n_samples,gyr_x,gyr_y,gyr_z,acc_x,acc_y,acc_z
0,-2.36641216278076160,-0.69465649127960208,-0.67175573110580448,-0.39624037475585936,0.00718260498046875,-9.77313117675781120
1,-2.48854970932006840,4.88549613952636720,-0.68702292442321776,-0.50637365112304688,0.00478840332031250,-9.70729063110351520
2,-2.54198479652404800,15.72519111633300800,-0.68702292442321776,-0.39983167724609376,-0.00239420166015625,-9.69292542114257760
3,-2.54961824417114240,25.25190925598144400,-0.70992368459701536,-0.21428104858398436,0.01197100830078125,-9.70369932861328160
4,-2.69465661048889160,37.34350967407226400,-0.70992368459701536,-0.03351882324218750,0.00718260498046875,-9.66060369873046720
5,-2.65648865699768080,39.54961776733398400,-0.74045801162719728,0.54827218017578120,-0.00119710083007813,-9.79228479003906240
6,-2.67175579071044920,39.33587646484375200,-0.72519081830978400,0.84395608520507808,0.01436520996093750,-9.70489642944335840
7,-2.75572514533996600,39.52671813964844000,-0.70992368459701536,1.19590372924804680,0.01556231079101563,-9.69891092529296960
8,-2.78625965118408200,37.74809265136718400,-0.74045801162719728,1.59573540649414040,0.01436520996093750,-9.66299790039062560
9,-2.77862596511840840,38.76335906982421600,-0.70992368459701536,1.77410343017578120,0.02753331909179688,-9.55525882568359360
10,-2.83969473838806160,38.96946716308593600,-0.76335877180099488,2.27209737548828080,0.01436520996093750,-9.53131680908203040
11,-2.78625965118408200,38.96946716308593600,-0.70992368459701536,2.59651170043945320,0.02394201660156250,-9.42118353271484320
12,-2.69465661048889160,39.52671813964844000,-0.74045801162719728,2.90057531127929680,0.04429273071289063,-9.33738647460937440
13,-2.54198479652404800,39.05343627929687200,-0.75572520494461056,3.26688816528320280,0.03591302490234375,-9.20450828247070400
14,-2.37404584884643560,38.76335906982421600,-0.74809157848358160,3.58172568359374960,0.05147533569335938,-9.11831702270507840
15,-2.53435111045837400,38.84732818603516000,-0.78625953197479248,3.94803853759765600,0.03351882324218750,-8.96269391479492000
16,-2.61068701744079600,39.25954055786132800,-0.74045801162719728,4.25329924926757840,0.05147533569335938,-8.81545051269531200
17,-2.74809169769287120,39.90839767456054400,-0.75572520494461056,4.57292517089843760,0.04548983154296876,-8.67299551391601600
18,-2.81679391860961920,39.83206176757812800,-0.74809157848358160,4.90691630249023440,0.05386953735351562,-8.48624778442382720
19,-2.86259531974792480,39.82442855834960800,-0.76335877180099488,5.18584079589843760,0.03830722656250000,-8.30069715576171840
20,-2.61832070350646960,39.48854827880859200,-0.75572520494461056,5.49708701171875040,0.06464344482421874,-8.10796392211913920
21,-2.48854970932006840,38.98473358154296800,-0.79389315843582160,5.79516511840820320,0.04908113403320312,-7.91044228515624960
22,-2.41984724998474120,38.49618148803711200,-0.79389315843582160,6.09204612426757760,0.06823474731445312,-7.71411774902343680
23,-2.48091602325439440,39.91603088378906400,-0.79389315843582160,6.35061990356445280,0.05506663818359376,-7.45554396972656160
24,-2.61832070350646960,39.51145172119140800,-0.76335877180099488,6.63672700195312400,0.06224924316406250,-7.25203682861328000
25,-2.59541988372802720,38.74809265136718400,-0.78625953197479248,6.91684859619140560,0.06943184814453126,-6.99466015014648400
26,-2.46564888954162600,41.22900772094726400,-0.79389315843582160,7.12274993896484320,0.06224924316406250,-6.71334145507812400
27,-2.61832070350646960,40.37404632568359200,-0.76335877180099488,7.38850632324218720,0.06224924316406250,-6.47152708740234320
28,-2.23664116859436040,38.68702316284180000,-0.81679391860961920,7.62433518676757760,0.06464344482421874,-6.18781419067382720
29,-2.07633590698242200,38.54198455810547200,-0.81679391860961920,7.83861623535156160,0.05746083984375000,-5.91966360473632720
30,-2.21374034881591800,39.03816986083984000,-0.80916029214859008,8.06247409057617280,0.09696516723632812,-5.63235940551757760
31,-2.56488561630249040,38.93893051147460800,-0.80152672529220576,8.27436093749999840,0.04548983154296876,-5.33428129882812480
32,-2.79389309883117680,38.43511581420898400,-0.76335877180099488,8.45751736450195360,0.07781155395507812,-5.04937130126953120
33,-2.94656491279602040,39.66412353515624800,-0.71755725145339968,8.63708248901367200,0.08379705810546874,-4.71538016967773360
34,-3.15267181396484360,39.71755599975585600,-0.70229005813598632,8.80228240356445280,0.09217676391601562,-4.41730206298828080
35,-3.45801520347595200,39.64885330200195200,-0.70229005813598632,8.97466492309570240,0.08259995727539062,-4.08690223388671840
36,-3.23664116859436040,39.07633590698242400,-0.76335877180099488,9.08838950195312320,0.08020575561523438,-3.76129080810546880
37,-2.51145029067993160,39.48091506958008000,-0.78625953197479248,9.23084450073242240,0.09337386474609374,-3.44645328979492200
38,-2.29007625579834000,37.94656372070312800,-0.80152672529220576,9.36372269287109280,0.09217676391601562,-3.09809694824218720
39,-2.11450386047363280,37.83969497680664000,-0.81679391860961920,9.47744727172851520,0.10295067138671874,-2.78804783325195280
40,-2.41984724998474120,38.85496139526367200,-0.79389315843582160,9.56363853149414080,0.08259995727539062,-2.43250888671875000
41,-2.91603064537048320,38.89313125610351200,-0.77099239826202400,9.66419500122070240,0.09935936889648436,-2.10450325927734400
42,-3.06870222091674800,39.62595367431640800,-0.74045801162719728,9.71447323608398400,0.08499415893554688,-1.73819040527343740
43,-3.30534362792968760,39.93893051147460800,-0.74045801162719728,9.75756886596679680,0.08140285644531250,-1.37906015625000000
44,-3.22900772094726560,36.87786102294921600,-0.74045801162719728,9.89762966308593600,0.08499415893554688,-1.10133276367187480
45,-3.67938923835754400,25.38167953491210800,-0.65648853778839112,9.95987890625000000,0.07900865478515624,-0.84156188354492176
46,-3.67938923835754400,15.22900772094726600,-0.64122140407562256,9.95987890625000000,0.08259995727539062,-0.63925184326171872
47,-3.00000000000000000,5.34351158142089840,-0.65648853778839112,9.96466730957031040,0.09816226806640624,-0.53510407104492184
48,-2.64885497093200680,-0.03053435124456883,-0.67175573110580448,9.87368764648437440,0.08858546142578126,-0.43574470214843744
49,-2.58015275001525880,-0.51908397674560544,-0.64122140407562256,9.85932243652343680,0.09816226806640624,-0.43813890380859368
50,-2.51145029067993160,-0.57251906394958496,-0.64122140407562256,9.85932243652343680,0.09337386474609374,-0.43335050048828120
51,-2.41984724998474120,-0.57251906394958496,-0.67938929796218872,9.85932243652343680,0.08858546142578126,-0.43574470214843744
52,-2.35114502906799320,-0.61832058429718016,-0.64122140407562256,9.86411083984375040,0.10414777221679688,-0.43813890380859368
53,-2.32061076164245600,-0.63358777761459352,-0.69465649127960208,9.85932243652343680,0.08858546142578126,-0.43215339965820312
54,-2.32061076164245600,-0.66412216424942016,-0.65648853778839112,9.85932243652343680,0.09097966308593750,-0.43933600463867184
55,-2.36641216278076160,-0.67938929796218872,-0.62595421075820920,9.85932243652343680,0.08978256225585938,-0.43215339965820312
56,-2.35114502906799320,-0.67938929796218872,-0.66412216424942016,9.85932243652343680,0.09935936889648436,-0.43933600463867184
57,-2.33587789535522480,-0.66412216424942016,-0.68702292442321776,9.85932243652343680,0.08619125976562500,-0.43694180297851560
58,-2.36641216278076160,-0.67175573110580448,-0.65648853778839112,9.85932243652343680,0.09097966308593750,-0.43454760131835936
59,-2.35114502906799320,-0.66412216424942016,-0.67175573110580448,9.85932243652343680,0.09097966308593750,-0.44532150878906248
60,-2.36641216278076160,-0.67938929796218872,-0.66412216424942016,9.85932243652343680,0.09457096557617186,-0.43454760131835936
61,-2.35877871513366680,-0.67175573110580448,-0.67938929796218872,9.85932243652343680,0.09097966308593750,-0.43574470214843744
62,-2.35877871513366680,-0.68702292442321776,-0.66412216424942016,9.85932243652343680,0.09457096557617186,-0.42975919799804688
63,-2.34351134300231920,-0.67175573110580448,-0.66412216424942016,9.85932243652343680,0.09097966308593750,-0.43933600463867184
64,-2.37404584884643560,-0.66412216424942016,-0.66412216424942016,9.85932243652343680,0.09097966308593750,-0.43454760131835936
65,-2.38931298255920400,-0.68702292442321776,-0.67175573110580448,9.85932243652343680,0.08978256225585938,-0.43574470214843744
66,-2.37404584884643560,-0.67175573110580448,-0.65648853778839112,9.86411083984375040,0.09097966308593750,-0.44412440795898432
67,-2.35114502906799320,-0.67175573110580448,-0.64885497093200680,9.85453403320312480,0.09097966308593750,-0.42856209716796872
68,-2.37404584884643560,-0.67175573110580448,-0.68702292442321776,9.85932243652343680,0.09097966308593750,-0.43694180297851560
69,-2.38167929649353040,-0.69465649127960208,-0.65648853778839112,9.85453403320312480,0.08858546142578126,-0.43454760131835936
70,-2.38931298255920400,-0.67938929796218872,-0.67938929796218872,9.85932243652343680,0.08978256225585938,-0.43574470214843744
71,-2.37404584884643560,-0.67938929796218872,-0.65648853778839112,9.85932243652343680,0.09457096557617186,-0.43933600463867184
72,-2.35114502906799320,-0.68702292442321776,-0.65648853778839112,9.85932243652343680,0.08978256225585938,-0.42975919799804688
73,-2.38167929649353040,-0.67938929796218872,-0.65648853778839112,9.85932243652343680,0.09457096557617186,-0.43933600463867184
74,-2.35877871513366680,-0.67175573110580448,-0.65648853778839112,9.85932243652343680,0.08619125976562500,-0.42975919799804688
75,-2.35114502906799320,-0.67175573110580448,-0.65648853778839112,9.85932243652343680,0.09576806640625000,-0.43454760131835936
76,-2.37404584884643560,-0.67175573110580448,-0.63358777761459352,9.85932243652343680,0.09097966308593750,-0.44173020629882808
77,-2.38167929649353040,-0.67175573110580448,-0.65648853778839112,9.85932243652343680,0.08619125976562500,-0.43454760131835936
78,-2.36641216278076160,-0.67175573110580448,-0.65648853778839112,9.85932243652343680,0.08619125976562500,-0.43933600463867184
79,-2.36641216278076160,-0.67175573110580448,-0.67938929796218872,9.85453403320312480,0.08619125976562500,-0.43095629882812496
80,-2.37404584884643560,-0.67175573110580448,-0.65648853778839112,9.85453403320312480,0.09097966308593750,-0.43454760131835936
81,-2.37404584884643560,-0.67938929796218872,-0.63358777761459352,9.85932243652343680,0.09935936889648436,-0.44173020629882808
82,-2.37404584884643560,-0.67938929796218872,-0.65648853778839112,9.85453403320312480,0.08978256225585938,-0.42975919799804688
83,-2.37404584884643560,-0.67175573110580448,-0.65648853778839112,9.86411083984375040,0.09097966308593750,-0.44412440795898432
84,-2.39694666862487800,-0.67938929796218872,-0.68702292442321776,9.85932243652343680,0.09457096557617186,-0.42736499633789064
85,-2.35877871513366680,-0.67938929796218872,-0.65648853778839112,9.85932243652343680,0.09935936889648436,-0.44412440795898432
86,-2.37404584884643560,-0.65648853778839112,-0.66412216424942016,9.85932243652343680,0.09696516723632812,-0.43454760131835936
87,-2.40458011627197280,-0.68702292442321776,-0.68702292442321776,9.85932243652343680,0.09457096557617186,-0.43215339965820312
88,-2.37404584884643560,-0.65648853778839112,-0.70229005813598632,9.86411083984375040,0.09696516723632812,-0.44292730712890624
89,-2.37404584884643560,-0.68702292442321776,-0.65648853778839112,9.85453403320312480,0.09457096557617186,-0.42975919799804688
90,-2.39694666862487800,-0.65648853778839112,-0.67938929796218872,9.85932243652343680,0.09217676391601562,-0.44053310546875000
91,-2.38167929649353040,-0.68702292442321776,-0.69465649127960208,9.85932243652343680,0.08978256225585938,-0.42736499633789064
92,-2.38167929649353040,-0.67938929796218872,-0.65648853778839112,9.86411083984375040,0.09457096557617186,-0.44412440795898432
93,-2.34351134300231920,-0.68702292442321776,-0.66412216424942016,9.86411083984375040,0.08978256225585938,-0.44412440795898432
94,-2.35877871513366680,-0.69465649127960208,-0.65648853778839112,9.85453403320312480,0.09816226806640624,-0.43454760131835936
95,-2.37404584884643560,-0.67175573110580448,-0.65648853778839112,9.85932243652343680,0.09097966308593750,-0.43933600463867184
96,-2.37404584884643560,-0.67938929796218872,-0.66412216424942016,9.85453403320312480,0.09457096557617186,-0.43454760131835936
97,-2.37404584884643560,-0.66412216424942016,-0.66412216424942016,9.85932243652343680,0.08619125976562500,-0.43933600463867184
98,-2.36641216278076160,-0.65648853778839112,-0.64885497093200680,9.85932243652343680,0.08738836059570312,-0.43335050048828120
99,-2.38167929649353040,-0.67175573110580448,-0.65648853778839112,9.85453403320312480,0.09097966308593750,-0.43454760131835936
100,-2.35114502906799320,-0.65648853778839112,-0.65648853778839112,9.86411083984375040,0.09217676391601562,-0.44412440795898432
101,-2.38167929649353040,-0.68702292442321776,-0.62595421075820920,9.85453403320312480,0.09457096557617186,-0.42257659301757808
102,-2.37404584884643560,-0.66412216424942016,-0.68702292442321776,9.85932243652343680,0.09097966308593750,-0.44173020629882808
103,-2.39694666862487800,-0.69465649127960208,-0.68702292442321776,9.85932243652343680,0.08858546142578126,-0.43215339965820312
104,-2.37404584884643560,-0.65648853778839112,-0.66412216424942016,9.85932243652343680,0.09217676391601562,-0.43454760131835936
105,-2.34351134300231920,-0.67938929796218872,-0.67175573110580448,9.86411083984375040,0.09935936889648436,-0.44053310546875000
106,-2.32824420928955080,-0.68702292442321776,-0.66412216424942016,9.85932243652343680,0.09457096557617186,-0.42975919799804688
107,-2.37404584884643560,-0.65648853778839112,-0.65648853778839112,9.85932243652343680,0.09217676391601562,-0.44412440795898432
108,-2.36641216278076160,-0.68702292442321776,-0.67175573110580448,9.85932243652343680,0.09457096557617186,-0.43095629882812496
109,-2.35114502906799320,-0.66412216424942016,-0.65648853778839112,9.85932243652343680,0.09097966308593750,-0.44412440795898432
110,-2.37404584884643560,-0.67175573110580448,-0.67938929796218872,9.85932243652343680,0.09097966308593750,-0.43095629882812496
111,-2.35114502906799320,-0.66412216424942016,-0.65648853778839112,9.85932243652343680,0.09097966308593750,-0.43933600463867184
112,-2.37404584884643560,-0.67938929796218872,-0.65648853778839112,9.85932243652343680,0.09457096557617186,-0.43933600463867184
113,-2.34351134300231920,-0.68702292442321776,-0.69465649127960208,9.85932243652343680,0.08499415893554688,-0.43215339965820312
114,-2.38167929649353040,-0.67175573110580448,-0.65648853778839112,9.85932243652343680,0.09097966308593750,-0.44412440795898432
115,-2.36641216278076160,-0.67175573110580448,-0.67938929796218872,9.85453403320312480,0.09097966308593750,-0.43574470214843744
116,-2.38167929649353040,-0.66412216424942016,-0.67938929796218872,9.85932243652343680,0.09097966308593750,-0.43095629882812496
117,-2.35114502906799320,-0.67938929796218872,-0.64885497093200680,9.85932243652343680,0.08978256225585938,-0.43335050048828120
118,-2.35114502906799320,-0.69465649127960208,-0.66412216424942016,9.85932243652343680,0.09337386474609374,-0.43454760131835936
119,-2.38931298255920400,-0.65648853778839112,-0.62595421075820920,9.85932243652343680,0.09217676391601562,-0.43694180297851560
120,-2.35877871513366680,-0.65648853778839112,-0.65648853778839112,9.86411083984375040,0.08738836059570312,-0.43454760131835936
121,-2.35114502906799320,-0.67175573110580448,-0.65648853778839112,9.85932243652343680,0.09576806640625000,-0.43454760131835936
122,-2.35877871513366680,-0.68702292442321776,-0.67175573110580448,9.85932243652343680,0.09457096557617186,-0.44053310546875000
123,-2.35114502906799320,-0.70229005813598632,-0.65648853778839112,9.85453403320312480,0.09337386474609374,-0.42975919799804688
124,-2.35877871513366680,-0.67938929796218872,-0.67175573110580448,9.86411083984375040,0.08978256225585938,-0.44532150878906248
125,-2.37404584884643560,-0.69465649127960208,-0.68702292442321776,9.85453403320312480,0.08858546142578126,-0.42736499633789064
126,-2.35114502906799320,-0.67175573110580448,-0.64122140407562256,9.85932243652343680,0.09097966308593750,-0.43813890380859368
127,-2.35114502906799320,-0.68702292442321776,-0.65648853778839112,9.86411083984375040,0.09457096557617186,-0.43933600463867184
128,-2.35114502906799320,-0.67938929796218872,-0.65648853778839112,9.85453403320312480,0.08978256225585938,-0.43454760131835936
129,-2.35877871513366680,-0.67938929796218872,-0.65648853778839112,9.86411083984375040,0.08978256225585938,-0.44412440795898432
130,-2.37404584884643560,-0.66412216424942016,-0.65648853778839112,9.85932243652343680,0.09097966308593750,-0.42975919799804688
131,-2.35877871513366680,-0.63358777761459352,-0.68702292442321776,9.86411083984375040,0.09337386474609374,-0.43694180297851560
132,-2.38167929649353040,-0.67175573110580448,-0.65648853778839112,9.85932243652343680,0.08619125976562500,-0.43454760131835936
133,-2.37404584884643560,-0.67175573110580448,-0.65648853778839112,9.85932243652343680,0.09097966308593750,-0.43933600463867184
134,-2.35114502906799320,-0.65648853778839112,-0.67175573110580448,9.85932243652343680,0.08738836059570312,-0.44053310546875000
135,-2.37404584884643560,-0.67938929796218872,-0.66412216424942016,9.85932243652343680,0.09457096557617186,-0.42975919799804688
136,-2.37404584884643560,-0.66412216424942016,-0.68702292442321776,9.85932243652343680,0.09097966308593750,-0.44173020629882808
137,-2.38167929649353040,-0.67175573110580448,-0.67938929796218872,9.85932243652343680,0.08619125976562500,-0.43095629882812496
138,-2.37404584884643560,-0.65648853778839112,-0.65648853778839112,9.85932243652343680,0.09217676391601562,-0.43454760131835936
139,-2.35877871513366680,-0.67175573110580448,-0.65648853778839112,9.85932243652343680,0.09097966308593750,-0.44412440795898432
140,-2.37404584884643560,-0.68702292442321776,-0.66412216424942016,9.85453403320312480,0.08978256225585938,-0.42975919799804688
141,-2.36641216278076160,-0.67938929796218872,-0.63358777761459352,9.85932243652343680,0.09457096557617186,-0.44173020629882808
142,-2.37404584884643560,-0.69465649127960208,-0.65648853778839112,9.85932243652343680,0.08858546142578126,-0.42975919799804688
143,-2.33587789535522480,-0.67175573110580448,-0.65648853778839112,9.85932243652343680,0.09576806640625000,-0.43933600463867184
144,-2.35877871513366680,-0.68702292442321776,-0.65648853778839112,9.86411083984375040,0.09457096557617186,-0.43454760131835936
145,-2.34351134300231920,-0.66412216424942016,-0.65648853778839112,9.84974562988281120,0.09097966308593750,-0.43454760131835936
146,-2.36641216278076160,-0.65648853778839112,-0.68702292442321776,9.86411083984375040,0.08259995727539062,-0.43694180297851560
147,-2.37404584884643560,-0.67175573110580448,-0.65648853778839112,9.85453403320312480,0.09097966308593750,-0.42975919799804688
148,-2.39694666862487800,-0.67175573110580448,-0.67938929796218872,9.85932243652343680,0.08619125976562500,-0.43574470214843744
149,-2.39694666862487800,-0.66412216424942016,-0.69465649127960208,9.86411083984375040,0.08619125976562500,-0.43694180297851560
150,-2.37404584884643560,-0.65648853778839112,-0.65648853778839112,9.85932243652343680,0.09217676391601562,-0.43933600463867184
151,-2.37404584884643560,-0.68702292442321776,-0.68702292442321776,9.85932243652343680,0.08978256225585938,-0.43215339965820312
152,-2.48091602325439440,-0.65648853778839112,-5.06106853485107440,9.85932243652343680,0.15921441040039062,-0.43454760131835936
153,-2.73282432556152360,-0.63358777761459352,-15.00000000000000000,9.85932243652343680,0.24181436767578124,-0.43813890380859368
154,-2.99236631393432600,-0.63358777761459352,-25.18320655822754000,9.85932243652343680,0.39983167724609376,-0.43694180297851560
155,-3.27480912208557120,-0.65648853778839112,-35.77099227905273600,9.85453403320312480,0.65241995239257808,-0.43454760131835936
156,-3.35877871513366680,-0.65648853778839112,-40.08396911621093600,9.83538041992187360,0.90620532836914064,-0.43694180297851560
157,-3.38167929649353040,-0.67938929796218872,-40.59542083740234400,9.78510218505859200,1.27730658569335920,-0.42975919799804688
158,-3.36641216278076160,-0.67175573110580448,-40.87022781372070400,9.74320365600585920,1.61848032226562500,-0.43215339965820312
159,-3.34351134300231920,-0.63358777761459352,-40.58015441894531200,9.67377180786132800,1.97042796630859360,-0.42856209716796872
160,-3.38167929649353040,-0.64885497093200680,-40.73282623291016000,9.59835445556640640,2.31878430786132800,-0.43095629882812496
161,-3.37404584884643560,-0.65648853778839112,-40.49618148803711200,9.50378348999023360,2.65876094360351520,-0.42137949218750000
162,-3.38167929649353040,-0.65648853778839112,-40.75572586059570400,9.40202991943359360,3.01310278930664040,-0.41778818969726560
163,-3.35877871513366680,-0.67175573110580448,-40.48854827880859200,9.28950244140624960,3.34230551757812480,-0.42616789550781248
164,-3.34351134300231920,-0.65648853778839112,-40.62595367431640800,9.15662424926757760,3.67869085083007760,-0.41299978637695312
165,-3.36641216278076160,-0.65648853778839112,-40.67938995361328000,9.02494315795898240,4.00909067993164000,-0.41659108886718752
166,-3.37404584884643560,-0.64885497093200680,-40.45801544189452800,8.86692584838867200,4.32512529907226560,-0.40462008056640624
167,-3.38167929649353040,-0.64885497093200680,-40.63358688354492000,8.70771143798828000,4.64594832153320240,-0.40342297973632816
168,-3.36641216278076160,-0.65648853778839112,-40.51145172119140800,8.53173761596679680,4.94761773071289040,-0.39384617309570304
169,-3.35877871513366680,-0.60305345058441160,-40.81679534912109600,8.34139858398437600,5.26724365234374960,-0.38905776977539056
170,-3.46564888954162600,-0.68702292442321776,-40.83969497680664000,8.15105955200195200,5.56771596069335920,-0.39624037475585936
171,-3.38167929649353040,-0.65648853778839112,-40.53435134887695200,7.94156690673828160,5.84783755493164000,-0.38187516479492184
172,-3.38931298255920400,-0.63358777761459352,-40.69465637207031200,7.72130035400390560,6.13155045166015600,-0.37948096313476560
173,-3.34351134300231920,-0.63358777761459352,-40.46564865112304800,7.49983670043945280,6.40448944091796880,-0.37110125732421872
174,-3.37404584884643560,-0.65648853778839112,-40.56488418579101600,7.25802233276367200,6.67144292602539040,-0.36032734985351560
175,-3.35877871513366680,-0.64122140407562256,-40.38167953491211200,7.01022246093749920,6.92642540283203120,-0.36032734985351560
176,-3.38167929649353040,-0.67938929796218872,-40.61832046508788800,6.75883128662109360,7.18619628295898400,-0.34476503906250000
177,-3.35114502906799320,-0.65648853778839112,-40.56488418579101600,6.48828649902343760,7.42322224731445280,-0.34596213989257812
178,-3.40458011627197280,-0.65648853778839112,-40.71755599975585600,6.22133301391601520,7.65306560668945280,-0.33399113159179684
179,-3.35877871513366680,-0.64885497093200680,-40.63358688354492000,5.93283171386718720,7.86854375610351520,-0.32202012329101560
180,-3.38167929649353040,-0.64885497093200680,-40.48854827880859200,5.64792171630859280,8.08402190551757760,-0.33039982910156244
181,-3.35877871513366680,-0.63358777761459352,-40.60305404663085600,5.34385810546874960,8.27675513916015520,-0.31004911499023436
182,-3.40458011627197280,-0.66412216424942016,-40.76335906982421600,5.05296260375976560,8.46589707031249920,-0.30885201416015624
183,-3.35877871513366680,-0.63358777761459352,-40.43511581420898400,4.72615407714843680,8.64546219482421760,-0.29209260253906248
184,-3.43511462211608880,-0.65648853778839112,-40.51145172119140800,4.41849916381835920,8.80228240356445280,-0.28850130004882812
185,-3.38931298255920400,-0.67175573110580448,-40.48091506958008000,4.10126744384765680,8.95431420898437440,-0.28610709838867188
186,-3.35877871513366680,-0.67938929796218872,-40.51908493041992000,3.76368500976562480,9.09676920776367200,-0.26575638427734372
187,-3.42748093605041520,-0.67938929796218872,-40.83206176757812800,3.44166488647460920,9.24042130737304640,-0.26575638427734372
188,-3.35114502906799320,-0.65648853778839112,-40.67938995361328000,3.09330854492187480,9.34337197875976480,-0.24420856933593748
189,-3.38167929649353040,-0.63358777761459352,-40.48854827880859200,2.76051451416015600,9.44991395263671840,-0.24899697265625000
190,-3.41221380233764640,-0.65648853778839112,-40.80152511596680000,2.40856687011718720,9.54448491821288960,-0.23463176269531248
191,-3.39694666862487800,-0.65648853778839112,-40.41221237182616800,2.06499893188476560,9.62109937133788960,-0.22385785522460936
192,-3.41221380233764640,-0.62595421075820920,-40.57251739501952800,1.70945998535156240,9.69531962280273280,-0.21667525024414060
193,-3.38167929649353040,-0.67175573110580448,-40.45801544189452800,1.36230074462890620,9.73482395019531200,-0.20350714111328124
194,-3.40458011627197280,-0.66412216424942016,-40.67938995361328000,1.00197339477539060,9.79707319335937440,-0.19632453613281248
195,-3.36641216278076160,-0.66412216424942016,-40.68702316284180000,0.65002575073242184,9.81622680664062560,-0.18315642700195312
196,-3.38931298255920400,-0.63358777761459352,-40.56488418579101600,0.29448680419921876,9.83538041992187360,-0.17357962036132812
197,-3.45801520347595200,-0.72519081830978400,-40.45801544189452800,-0.05985504150390626,9.82101520996093600,-0.16998831787109376
198,-3.40458011627197280,-0.68702292442321776,-40.48091506958008000,-0.42497079467773432,9.82101520996093600,-0.15682020874023436
199,-3.38931298255920400,-0.66412216424942016,-40.76335906982421600,-0.77811553955078112,9.81143840332031200,-0.15083470458984374
200,-3.38167929649353040,-0.64885497093200680,-40.48854827880859200,-1.13126028442382800,9.76475147094726560,-0.13407529296874998
201,-3.38167929649353040,-0.67175573110580448,-40.67938995361328000,-1.48560213012695300,9.72045874023437440,-0.13407529296874998
202,-3.36641216278076160,-0.64122140407562256,-40.60305404663085600,-1.83395847167968720,9.66060369873046720,-0.12330138549804686
203,-3.35877871513366680,-0.64885497093200680,-40.50381851196288800,-2.18830031738281240,9.58758054809570240,-0.10654197387695312
204,-3.38931298255920400,-0.64885497093200680,-40.76335906982421600,-2.53545955810546840,9.49660088500976640,-0.10773907470703124
205,-3.38931298255920400,-0.64885497093200680,-40.48854827880859200,-2.87543619384765640,9.39125601196288960,-0.09097966308593750
206,-3.42748093605041520,-0.68702292442321776,-40.57251739501952800,-3.21780703125000000,9.28830534057617120,-0.08738836059570312
207,-3.38167929649353040,-0.64122140407562256,-40.60305404663085600,-3.55419236450195320,9.15782135009765600,-0.07541735229492188
208,-3.37404584884643560,-0.63358777761459352,-40.29771041870116800,-3.88459219360351520,9.02374605712890560,-0.07062894897460938
209,-3.41221380233764640,-0.63358777761459352,-40.43511581420898400,-4.20780941772460880,8.87051715087890560,-0.05746083984375000
210,-3.30534362792968760,-0.58778625726699832,-40.33587646484375200,-4.52504113769531200,8.71609114379882720,-0.04548983154296876
211,-3.46564888954162600,-0.65648853778839112,-40.89313125610351200,-4.83987865600585920,8.56286223754882720,-0.04548983154296876
212,-3.41221380233764640,-0.61832058429718016,-40.51145172119140800,-5.15112487182617120,8.36414349975585760,-0.02513911743164063
213,-3.39694666862487800,-0.64885497093200680,-40.58778762817383200,-5.44680877685546880,8.17021316528320320,-0.02633621826171875
214,-3.41221380233764640,-0.64122140407562256,-40.54961776733398400,-5.74009848022460880,7.96072052001953120,-0.01436520996093750
215,-3.41221380233764640,-0.62595421075820920,-40.48854827880859200,-6.02740267944335920,7.75601627807617120,-0.00957680664062500
216,-3.41221380233764640,-0.61832058429718016,-40.70992279052734400,-6.30991847534179680,7.53096132202148320,-0.00239420166015625
217,-3.41221380233764640,-0.64885497093200680,-40.34351348876952800,-6.56849225463867200,7.28914695434570240,0.01077390747070313
218,-3.41221380233764640,-0.67175573110580448,-40.71755599975585600,-6.83185443725585920,7.05810649414062480,0.00598550415039063
219,-3.38931298255920400,-0.64122140407562256,-40.64885330200195200,-7.08444271240234320,6.80192691650390560,0.01556231079101563
220,-3.40458011627197280,-0.65648853778839112,-40.57251739501952800,-7.32027157592773440,6.53736763305664080,0.03112462158203125
221,-3.43511462211608880,-0.64885497093200680,-40.48854827880859200,-7.55729754028320160,6.25485183715820240,0.02394201660156250
222,-3.38167929649353040,-0.64885497093200680,-40.35114669799804800,-7.77756409301757760,5.98191284790039040,0.03950432739257812
223,-3.41221380233764640,-0.64885497093200680,-40.78625869750976800,-7.99543644409179520,5.70418545532226480,0.03351882324218750
224,-3.32061076164245600,-0.64885497093200680,-40.21374130249023200,-8.19415518188476480,5.39772764282226560,0.05506663818359376
225,-3.41221380233764640,-0.67175573110580448,-40.68702316284180000,-8.38808551635742080,5.10922634277343680,0.05626373901367188
226,-3.39694666862487800,-0.64885497093200680,-40.34351348876952800,-8.57363614501953120,4.78960042114257760,0.05386953735351562
227,-3.38167929649353040,-0.62595421075820920,-40.64885330200195200,-8.73045635375976480,4.48553681030273360,0.06344634399414062
228,-3.40458011627197280,-0.64885497093200680,-40.61832046508788800,-8.89086786499023360,4.16231958618164000,0.05626373901367188
229,-3.35114502906799320,-0.63358777761459352,-40.51145172119140800,-9.02973156127929600,3.83790526123046880,0.06943184814453126
230,-3.41984724998474120,-0.63358777761459352,-40.70228958129883200,-9.16979235839843680,3.50750543212890600,0.06943184814453126
231,-3.39694666862487800,-0.62595421075820920,-40.47328186035156000,-9.28710823974609280,3.17351430053710920,0.07781155395507812
232,-3.41984724998474120,-0.65648853778839112,-40.64885330200195200,-9.39963571777343680,2.82635505981445280,0.07781155395507812
233,-3.40458011627197280,-0.64885497093200680,-40.47328186035156000,-9.49899508666992160,2.47680161743164040,0.07302315063476562
234,-3.38167929649353040,-0.61832058429718016,-40.54961776733398400,-9.57800374145507840,2.13921918334960920,0.08619125976562500
235,-3.41221380233764640,-0.64122140407562256,-40.66412353515624800,-9.64743558959960800,1.78846864013671860,0.08140285644531250
236,-3.38167929649353040,-0.62595421075820920,-40.54961776733398400,-9.69771382446288960,1.44011229858398420,0.08140285644531250
237,-3.39694666862487800,-0.61068701744079592,-40.75572586059570400,-9.75158336181640640,1.08217915039062480,0.08858546142578126
238,-3.43511462211608880,-0.68702292442321776,-39.96946716308593600,-9.77911668090820320,0.71706339721679680,0.07900865478515624
239,-3.19083976745605480,-0.65648853778839112,-31.80916023254394400,-9.81143840332031200,0.31244331665039060,0.09097966308593750
240,-2.92366409301757800,-0.65648853778839112,-21.45801544189453200,-9.82101520996093600,0.07302315063476562,0.08379705810546874
241,-2.67175579071044920,-0.65648853778839112,-11.22900772094726600,-9.82580361328124960,-0.08020575561523438,0.08619125976562500
242,-2.41984724998474120,-0.68702292442321776,-1.99236643314361560,-9.82580361328124960,-0.12569558715820312,0.08738836059570312
243,-2.38167929649353040,-0.67175573110580448,-0.71755725145339968,-9.81622680664062560,-0.05746083984375000,0.08259995727539062
244,-2.37404584884643560,-0.67938929796218872,-0.67175573110580448,-9.81622680664062560,-0.06703764648437500,0.08619125976562500
245,-2.37404584884643560,-0.68702292442321776,-0.64885497093200680,-9.82101520996093600,-0.06823474731445312,0.08259995727539062
246,-2.37404584884643560,-0.67175573110580448,-0.65648853778839112,-9.82101520996093600,-0.06224924316406250,0.09217676391601562
247,-2.37404584884643560,-0.68702292442321776,-0.64885497093200680,-9.82101520996093600,-0.06344634399414062,0.08259995727539062
248,-2.36641216278076160,-0.65648853778839112,-0.67175573110580448,-9.82101520996093600,-0.07062894897460938,0.08619125976562500
249,-2.35877871513366680,-0.67938929796218872,-0.69465649127960208,-9.82101520996093600,-0.05267243652343750,0.09337386474609374
250,-2.37404584884643560,-0.67938929796218872,-0.65648853778839112,-9.82580361328124960,-0.06703764648437500,0.08259995727539062
251,-2.35877871513366680,-0.65648853778839112,-0.64885497093200680,-9.82101520996093600,-0.06584054565429688,0.09217676391601562
252,-2.35114502906799320,-0.67938929796218872,-0.65648853778839112,-9.82580361328124960,-0.07182604980468750,0.07781155395507812
253,-2.35114502906799320,-0.67938929796218872,-0.64885497093200680,-9.82101520996093600,-0.05746083984375000,0.09696516723632812
254,-2.37404584884643560,-0.67938929796218872,-0.65648853778839112,-9.82580361328124960,-0.06703764648437500,0.08259995727539062
255,-2.35877871513366680,-0.66412216424942016,-0.62595421075820920,-9.82101520996093600,-0.06584054565429688,0.08978256225585938
256,-2.34351134300231920,-0.68702292442321776,-0.65648853778839112,-9.82101520996093600,-0.06823474731445312,0.08738836059570312
257,-2.35877871513366680,-0.67175573110580448,-0.65648853778839112,-9.82101520996093600,-0.06703764648437500,0.07781155395507812
258,-2.37404584884643560,-0.68702292442321776,-0.64885497093200680,-9.82101520996093600,-0.05865794067382812,0.09217676391601562
259,-2.38931298255920400,-0.68702292442321776,-0.62595421075820920,-9.82580361328124960,-0.06823474731445312,0.08499415893554688
260,-2.35877871513366680,-0.67175573110580448,-0.68702292442321776,-9.82101520996093600,-0.06703764648437500,0.08978256225585938
261,-2.35114502906799320,-0.67175573110580448,-0.67938929796218872,-9.82101520996093600,-0.06703764648437500,0.08499415893554688
262,-2.37404584884643560,-0.67175573110580448,-0.66412216424942016,-9.82580361328124960,-0.06703764648437500,0.08140285644531250
263,-2.37404584884643560,-0.67175573110580448,-0.62595421075820920,-9.82101520996093600,-0.06703764648437500,0.08978256225585938
264,-2.36641216278076160,-0.67938929796218872,-0.65648853778839112,-9.82101520996093600,-0.06703764648437500,0.07781155395507812
265,-2.37404584884643560,-0.65648853778839112,-0.63358777761459352,-9.82101520996093600,-0.06584054565429688,0.08858546142578126
266,-2.38931298255920400,-0.68702292442321776,-0.65648853778839112,-9.82580361328124960,-0.06823474731445312,0.08259995727539062
267,-2.36641216278076160,-0.66412216424942016,-0.68702292442321776,-9.82101520996093600,-0.06584054565429688,0.08499415893554688
268,-2.35114502906799320,-0.66412216424942016,-0.63358777761459352,-9.82101520996093600,-0.07541735229492188,0.08858546142578126
269,-2.37404584884643560,-0.67938929796218872,-0.65648853778839112,-9.82101520996093600,-0.05746083984375000,0.07781155395507812
270,-2.38167929649353040,-0.67175573110580448,-0.66412216424942016,-9.82101520996093600,-0.06703764648437500,0.08619125976562500
271,-2.38931298255920400,-0.67175573110580448,-0.67938929796218872,-9.82580361328124960,-0.07182604980468750,0.08499415893554688
272,-2.40458011627197280,-0.66412216424942016,-0.65648853778839112,-9.82101520996093600,-0.06105214233398438,0.08738836059570312
273,-2.37404584884643560,-0.67938929796218872,-0.65648853778839112,-9.82101520996093600,-0.06224924316406250,0.08259995727539062
274,-2.36641216278076160,-0.68702292442321776,-0.63358777761459352,-9.82580361328124960,-0.06344634399414062,0.08379705810546874
275,-2.38931298255920400,-0.66412216424942016,-0.64885497093200680,-9.82101520996093600,-0.06584054565429688,0.08738836059570312
276,-2.37404584884643560,-0.68702292442321776,-0.67938929796218872,-9.82101520996093600,-0.06344634399414062,0.08978256225585938
277,-2.36641216278076160,-0.65648853778839112,-0.64885497093200680,-9.82101520996093600,-0.06584054565429688,0.08259995727539062
278,-2.41221380233764640,-0.68702292442321776,-0.65648853778839112,-9.81622680664062560,-0.06344634399414062,0.08738836059570312
279,-2.35114502906799320,-0.69465649127960208,-0.68702292442321776,-9.82101520996093600,-0.06823474731445312,0.08499415893554688
280,-2.37404584884643560,-0.67175573110580448,-0.62595421075820920,-9.82101520996093600,-0.06703764648437500,0.09457096557617186
281,-2.37404584884643560,-0.68702292442321776,-0.67175573110580448,-9.82101520996093600,-0.06344634399414062,0.08140285644531250
282,-2.37404584884643560,-0.65648853778839112,-0.65648853778839112,-9.82580361328124960,-0.07062894897460938,0.08738836059570312
283,-2.37404584884643560,-0.68702292442321776,-0.63358777761459352,-9.82101520996093600,-0.05865794067382812,0.08379705810546874
284,-2.37404584884643560,-0.67175573110580448,-0.65648853778839112,-9.82101520996093600,-0.06703764648437500,0.08738836059570312
285,-2.38167929649353040,-0.68702292442321776,-0.65648853778839112,-9.82101520996093600,-0.06344634399414062,0.08738836059570312
286,-2.37404584884643560,-0.66412216424942016,-0.65648853778839112,-9.82580361328124960,-0.07062894897460938,0.07781155395507812
287,-2.36641216278076160,-0.66412216424942016,-0.64885497093200680,-9.82101520996093600,-0.06105214233398438,0.09217676391601562
288,-2.38167929649353040,-0.67175573110580448,-0.63358777761459352,-9.82101520996093600,-0.06703764648437500,0.08379705810546874
289,-2.40458011627197280,-0.66412216424942016,-0.68702292442321776,-9.81622680664062560,-0.06584054565429688,0.08978256225585938
290,-2.39694666862487800,-0.68702292442321776,-0.65648853778839112,-9.82580361328124960,-0.06344634399414062,0.08738836059570312
291,-2.38167929649353040,-0.66412216424942016,-0.65648853778839112,-9.82101520996093600,-0.06584054565429688,0.08259995727539062
292,-2.38167929649353040,-0.66412216424942016,-0.65648853778839112,-9.82101520996093600,-0.06584054565429688,0.08738836059570312
293,-2.40458011627197280,-0.67938929796218872,-0.65648853778839112,-9.82101520996093600,-0.06224924316406250,0.08259995727539062
294,-2.37404584884643560,-0.65648853778839112,-0.65648853778839112,-9.82101520996093600,-0.06584054565429688,0.09217676391601562
295,-2.38931298255920400,-0.67938929796218872,-0.63358777761459352,-9.82101520996093600,-0.06224924316406250,0.08379705810546874
296,-2.37404584884643560,-0.65648853778839112,-0.65648853778839112,-9.82101520996093600,-0.06584054565429688,0.08259995727539062
297,-2.39694666862487800,-0.67175573110580448,-0.66412216424942016,-9.82101520996093600,-0.06703764648437500,0.08619125976562500
298,-2.37404584884643560,-0.67938929796218872,-0.62595421075820920,-9.82101520996093600,-0.06224924316406250,0.08020575561523438
299,-2.38167929649353040,-0.68702292442321776,-0.64885497093200680,-9.82101520996093600,-0.05865794067382812,0.08738836059570312
300,-2.37404584884643560,-0.66412216424942016,-0.63358777761459352,-9.82101520996093600,-0.07062894897460938,0.08379705810546874
301,-2.37404584884643560,-0.65648853778839112,-0.65648853778839112,-9.82580361328124960,-0.06105214233398438,0.08738836059570312
302,-2.37404584884643560,-0.67175573110580448,-0.64885497093200680,-9.82101520996093600,-0.07182604980468750,0.08738836059570312
303,-2.37404584884643560,-0.68702292442321776,-0.64885497093200680,-9.82580361328124960,-0.06823474731445312,0.07781155395507812
304,-2.36641216278076160,-0.68702292442321776,-0.65648853778839112,-9.82101520996093600,-0.06344634399414062,0.08738836059570312
305,-2.40458011627197280,-0.67175573110580448,-0.65648853778839112,-9.82101520996093600,-0.06703764648437500,0.08259995727539062
306,-2.35877871513366680,-0.67175573110580448,-0.64885497093200680,-9.82101520996093600,-0.07182604980468750,0.08738836059570312
307,-2.37404584884643560,-0.67938929796218872,-0.69465649127960208,-9.82101520996093600,-0.06703764648437500,0.08858546142578126
308,-2.35114502906799320,-0.67175573110580448,-0.68702292442321776,-9.82580361328124960,-0.06703764648437500,0.08499415893554688
309,-2.40458011627197280,-0.67175573110580448,-0.63358777761459352,-9.82101520996093600,-0.06703764648437500,0.09337386474609374
310,-2.39694666862487800,-0.67175573110580448,-0.63358777761459352,-9.82101520996093600,-0.07182604980468750,0.07900865478515624
311,-2.39694666862487800,-0.65648853778839112,-0.65648853778839112,-9.81622680664062560,-0.06105214233398438,0.08738836059570312
312,-2.35114502906799320,-0.67175573110580448,-0.65648853778839112,-9.82101520996093600,-0.06703764648437500,0.08259995727539062
313,-2.38931298255920400,-0.67175573110580448,-0.63358777761459352,-9.82580361328124960,-0.06703764648437500,0.08379705810546874
314,-2.35877871513366680,-0.67938929796218872,-0.65648853778839112,-9.82580361328124960,-0.06224924316406250,0.08738836059570312
315,-2.37404584884643560,-0.68702292442321776,-0.65648853778839112,-9.82101520996093600,-0.06344634399414062,0.07781155395507812
316,-2.36641216278076160,-0.68702292442321776,-0.66412216424942016,-9.82101520996093600,-0.05386953735351562,0.08619125976562500
317,-2.34351134300231920,-0.67175573110580448,-0.67938929796218872,-9.82580361328124960,-0.06703764648437500,0.08020575561523438
318,-2.35114502906799320,-0.66412216424942016,-0.65648853778839112,-9.82101520996093600,-0.06584054565429688,0.08738836059570312
319,-2.37404584884643560,-0.67938929796218872,-0.63358777761459352,-9.82101520996093600,-0.06224924316406250,0.08379705810546874
320,-2.35877871513366680,-0.67175573110580448,-0.65648853778839112,-9.82580361328124960,-0.06224924316406250,0.08259995727539062
321,-2.38167929649353040,-0.63358777761459352,-0.64885497093200680,-9.82101520996093600,-0.06823474731445312,0.08738836059570312
322,-2.38167929649353040,-0.67175573110580448,-0.64122140407562256,-9.82580361328124960,-0.07182604980468750,0.08379705810546874
323,-2.37404584884643560,-0.65648853778839112,-0.65648853778839112,-9.82101520996093600,-0.07062894897460938,0.09217676391601562
324,-2.37404584884643560,-0.70229005813598632,-0.63358777761459352,-9.82101520996093600,-0.06943184814453126,0.08379705810546874
325,-2.37404584884643560,-0.67175573110580448,-0.65648853778839112,-9.82580361328124960,-0.06703764648437500,0.08259995727539062
326,-2.37404584884643560,-0.68702292442321776,-0.66412216424942016,-9.81622680664062560,-0.06344634399414062,0.09097966308593750
327,-2.41984724998474120,-0.66412216424942016,-0.63358777761459352,-9.82580361328124960,-0.06584054565429688,0.07900865478515624
328,-2.37404584884643560,-0.67175573110580448,-0.63358777761459352,-9.81622680664062560,-0.06703764648437500,0.09337386474609374
329,-2.37404584884643560,-0.68702292442321776,-0.65648853778839112,-9.82580361328124960,-0.05865794067382812,0.07781155395507812
330,-2.38931298255920400,-0.66412216424942016,-0.67175573110580448,-9.82101520996093600,-0.06105214233398438,0.08619125976562500
331,-2.40458011627197280,-0.67175573110580448,-0.64885497093200680,-9.82580361328124960,-0.07182604980468750,0.08259995727539062
332,-2.35114502906799320,-0.67175573110580448,-0.67938929796218872,-9.82101520996093600,-0.07182604980468750,0.08499415893554688
333,-2.36641216278076160,-0.68702292442321776,-0.65648853778839112,-9.82101520996093600,-0.06344634399414062,0.08738836059570312
334,-2.36641216278076160,-0.68702292442321776,-0.64122140407562256,-9.82101520996093600,-0.05865794067382812,0.08379705810546874
335,-2.37404584884643560,-0.67175573110580448,-0.65648853778839112,-9.82101520996093600,-0.06703764648437500,0.08738836059570312
336,-2.38167929649353040,-0.67175573110580448,-0.63358777761459352,-9.82580361328124960,-0.07182604980468750,0.09337386474609374
337,-2.37404584884643560,-0.65648853778839112,-0.66412216424942016,-9.81622680664062560,-0.06105214233398438,0.08140285644531250
338,-2.38167929649353040,-0.67938929796218872,-0.66412216424942016,-9.82580361328124960,-0.06224924316406250,0.08619125976562500
339,-2.37404584884643560,-0.68702292442321776,-0.65648853778839112,-9.82101520996093600,-0.06344634399414062,0.08259995727539062
340,-2.37404584884643560,-0.67175573110580448,-0.63358777761459352,-9.82580361328124960,-0.06224924316406250,0.08379705810546874
341,-2.37404584884643560,-0.66412216424942016,-0.65648853778839112,-9.82101520996093600,-0.06584054565429688,0.08738836059570312
342,-2.38167929649353040,-0.65648853778839112,-0.63358777761459352,-9.82580361328124960,-0.06584054565429688,0.08379705810546874
343,-2.38931298255920400,-0.65648853778839112,-0.67175573110580448,-9.82101520996093600,-0.06105214233398438,0.08619125976562500
344,-2.38931298255920400,-0.70229005813598632,-0.63358777761459352,-9.82580361328124960,-0.06943184814453126,0.08379705810546874
345,-2.37404584884643560,-0.66412216424942016,-0.65648853778839112,-9.81622680664062560,-0.06584054565429688,0.08738836059570312
346,-2.33587789535522480,-0.68702292442321776,1.14503812789917000,-9.82580361328124960,-0.09217676391601562,0.08499415893554688
347,-2.14503812789917000,-0.67938929796218872,7.91603040695190400,-9.83059201660156160,-0.13407529296874998,0.08379705810546874
348,-1.80152666568756120,-0.65648853778839112,21.37404632568359200,-9.82101520996093600,-0.00837970581054687,0.08619125976562500
349,-1.55725193023681640,-0.70992368459701536,31.33587837219238400,-9.81622680664062560,0.23582886352539060,0.08140285644531250
350,-1.36641216278076180,-0.67175573110580448,38.48854827880859200,-9.79348189086914080,0.59855041503906248,0.08738836059570312
351,-1.35877859592437740,-0.69465649127960208,39.66412353515624800,-9.76475147094726560,0.97444007568359376,0.08379705810546874
352,-1.32824432849884040,-0.72519081830978400,39.24427413940429600,-9.71926163940429600,1.32159931640624980,0.08379705810546874
353,-1.35114502906799320,-0.70229005813598632,39.44274902343750400,-9.65820949707031200,1.68791217041015600,0.08499415893554688
354,-1.36641216278076180,-0.71755725145339968,38.63358688354492000,-9.59715735473632640,2.06021052856445320,0.07900865478515624
355,-1.35114502906799320,-0.67175573110580448,39.38167953491211200,-9.51455739746093760,2.37983645019531240,0.08499415893554688
356,-1.35114502906799320,-0.70229005813598632,39.32061004638672000,-9.42357773437500000,2.73178409423828080,0.07541735229492188
357,-1.34351146221160880,-0.66412216424942016,39.52671813964844000,-9.32302126464843680,3.05500131835937480,0.08259995727539062
358,-1.38931298255920420,-0.67938929796218872,39.51145172119140800,-9.20211408081054560,3.40335765991210920,0.06703764648437500
359,-1.33587789535522460,-0.68702292442321776,39.28244400024414400,-9.07282719116210880,3.74333429565429680,0.06823474731445312
360,-1.36641216278076180,-0.69465649127960208,39.14503860473632800,-8.92678088989257760,4.07732542724609360,0.06224924316406250
361,-1.36641216278076180,-0.69465649127960208,38.87022781372070400,-8.77834038696288960,4.40293685302734320,0.05985504150390626
362,-1.33587789535522460,-0.67938929796218872,39.16030502319336000,-8.61314047241210880,4.70580336303710960,0.05865794067382812
363,-1.29770994186401360,-0.67175573110580448,39.77099227905273600,-8.43836375122070240,5.00388146972656240,0.04908113403320312
364,-1.40458011627197260,-0.71755725145339968,39.22900772094726400,-8.24563051757812480,5.31632478637695280,0.04908113403320312
365,-1.36641216278076180,-0.68702292442321776,39.38931274414062400,-8.05050308227539040,5.61559999389648400,0.04309562988281250
366,-1.37404584884643560,-0.69465649127960208,38.71755599975585600,-7.84579884033203040,5.92086070556640560,0.02873041992187500
367,-1.32061064243316660,-0.70229005813598632,39.29771041870116800,-7.62074388427734240,6.17943448486328080,0.03112462158203125
368,-1.35877859592437740,-0.67175573110580448,39.35877990722656000,-7.38970342407226560,6.46434448242187440,0.01675941162109375
369,-1.33587789535522460,-0.68702292442321776,39.48854827880859200,-7.15746586303710880,6.70735595092773360,0.02154781494140625
370,-1.36641216278076180,-0.73282444477081296,39.77099227905273600,-6.90128628540039040,6.97191523437499920,0.00598550415039063
371,-1.33587789535522460,-0.67175573110580448,39.06106948852539200,-6.64989511108398400,7.23048901367187520,0.00239420166015625
372,-1.32061064243316660,-0.68702292442321776,38.90076446533203200,-6.37575902099609360,7.47828888549804640,0.00000000000000000
373,-1.35877859592437740,-0.70229005813598632,38.93893051147460800,-6.10641133422851520,7.70693514404296800,-0.01077390747070313
374,-1.33587789535522460,-0.70992368459701536,39.25190734863281600,-5.82150133666992160,7.90206257934570240,-0.00598550415039063
375,-1.36641216278076180,-0.71755725145339968,39.71755599975585600,-5.53659133911132800,8.10317551879882880,-0.03112462158203125
376,-1.35114502906799320,-0.71755725145339968,39.12213897705078400,-5.22414802246093760,8.31386526489257760,-0.02992752075195313
377,-1.23664116859436040,-0.61068701744079592,39.12213897705078400,-4.92846411743164000,8.50899270019531200,-0.03471592407226563
378,-1.38167941570281980,-0.72519081830978400,38.83206176757812800,-4.60883819580078160,8.67658681640624960,-0.04788403320312500
379,-1.35877859592437740,-0.70229005813598632,39.15267181396484000,-4.29639487915039040,8.83699832763671840,-0.05626373901367188
380,-1.31297707557678220,-0.70992368459701536,39.31297683715820000,-3.97198055419921840,8.98903013305664160,-0.06344634399414062
381,-1.34351146221160880,-0.68702292442321776,39.22137451171875200,-3.64876333007812480,9.11592282104492160,-0.07541735229492188
382,-1.32824432849884040,-0.67938929796218872,39.63358688354492000,-3.30758959350585920,9.24999811401367040,-0.08140285644531250
383,-1.33587789535522460,-0.70229005813598632,38.95419692993164000,-2.97718976440429680,9.38287630615234400,-0.09576806640625000
384,-1.33587789535522460,-0.70992368459701536,39.24427413940429600,-2.62763632202148400,9.46787046508788960,-0.09217676391601562
385,-1.40458011627197260,-0.67938929796218872,39.12213897705078400,-2.28406838378906240,9.56603273315429600,-0.11133037719726562
386,-1.31297707557678220,-0.66412216424942016,39.38931274414062400,-1.94169754638671840,9.62469067382812480,-0.11492167968750000
387,-1.33587789535522460,-0.68702292442321776,39.51145172119140800,-1.59334120483398440,9.69531962280273280,-0.12928688964843748
388,-1.32061064243316660,-0.74045801162719728,39.23664093017578400,-1.22822545166015620,9.75756886596679680,-0.14125789794921876
389,-1.32824432849884040,-0.68702292442321776,38.58015441894531200,-0.87986911010742192,9.80545289916992160,-0.14006079711914062
390,-1.57251906394958500,-0.68702292442321776,30.07633590698242000,-0.54468087768554688,9.90720646972656160,-0.16041151123046874
391,-1.77862596511840820,-0.65648853778839112,20.16030502319336000,-0.30166940917968748,9.89284125976562400,-0.15203180541992186
392,-2.09923672676086440,-0.64122140407562256,9.77099227905273440,-0.15442600708007812,9.91678327636718720,-0.18195932617187500
393,-2.32061076164245600,-0.65648853778839112,0.58015269041061400,-0.10055646972656250,9.89284125976562400,-0.16519991455078122
394,-2.37404584884643560,-0.65648853778839112,-0.61068701744079592,-0.10414777221679688,9.83059201660156160,-0.17238251953125000
395,-2.38931298255920400,-0.67175573110580448,-0.65648853778839112,-0.09576806640625000,9.83538041992187360,-0.16639701538085936
396,-2.37404584884643560,-0.68702292442321776,-0.65648853778839112,-0.09935936889648436,9.83538041992187360,-0.16639701538085936
397,-2.37404584884643560,-0.66412216424942016,-0.64885497093200680,-0.09935936889648436,9.83538041992187360,-0.16998831787109376
398,-2.37404584884643560,-0.67938929796218872,-0.65648853778839112,-0.09935936889648436,9.83059201660156160,-0.16160861206054686
399,-2.35877871513366680,-0.67175573110580448,-0.66412216424942016,-0.09816226806640624,9.83538041992187360,-0.17118541870117188
400,-2.35114502906799320,-0.67938929796218872,-0.65648853778839112,-0.09816226806640624,9.83059201660156160,-0.17118541870117188
401,-2.35114502906799320,-0.67175573110580448,-0.65648853778839112,-0.09816226806640624,9.83059201660156160,-0.16160861206054686
402,-2.37404584884643560,-0.67175573110580448,-0.64885497093200680,-0.09935936889648436,9.83538041992187360,-0.17477672119140624
403,-2.35877871513366680,-0.67175573110580448,-0.65648853778839112,-0.10295067138671874,9.83538041992187360,-0.16160861206054686
404,-2.38167929649353040,-0.64885497093200680,-0.63358777761459352,-0.10534487304687500,9.83059201660156160,-0.16879121704101562
405,-2.37404584884643560,-0.65648853778839112,-0.65648853778839112,-0.10414777221679688,9.83538041992187360,-0.16639701538085936
406,-2.37404584884643560,-0.65648853778839112,-0.67175573110580448,-0.09935936889648436,9.83538041992187360,-0.16759411621093748
407,-2.37404584884643560,-0.68702292442321776,-0.63358777761459352,-0.09935936889648436,9.84016882324218720,-0.17357962036132812
408,-2.33587789535522480,-0.65648853778839112,-0.64122140407562256,-0.09696516723632812,9.83059201660156160,-0.16041151123046874
409,-2.41984724998474120,-0.67175573110580448,-0.66412216424942016,-0.09816226806640624,9.83059201660156160,-0.17597382202148438
410,-2.36641216278076160,-0.67175573110580448,-0.65648853778839112,-0.10414777221679688,9.83059201660156160,-0.16160861206054686
411,-2.38931298255920400,-0.68702292442321776,-0.65648853778839112,-0.09576806640625000,9.83538041992187360,-0.17118541870117188
412,-2.36641216278076160,-0.67938929796218872,-0.64885497093200680,-0.09935936889648436,9.83538041992187360,-0.16998831787109376
413,-2.37404584884643560,-0.65648853778839112,-0.66412216424942016,-0.09935936889648436,9.83538041992187360,-0.16160861206054686
414,-2.36641216278076160,-0.67175573110580448,-0.65648853778839112,-0.09935936889648436,9.83538041992187360,-0.16639701538085936
415,-2.38167929649353040,-0.67175573110580448,-0.67175573110580448,-0.10055646972656250,9.83538041992187360,-0.16759411621093748
416,-2.37404584884643560,-0.68702292442321776,-0.66412216424942016,-0.10414777221679688,9.83538041992187360,-0.16639701538085936
417,-2.37404584884643560,-0.67175573110580448,-0.63358777761459352,-0.10414777221679688,9.83538041992187360,-0.16879121704101562
418,-2.37404584884643560,-0.68702292442321776,-0.65648853778839112,-0.09935936889648436,9.83059201660156160,-0.16639701538085936
419,-2.37404584884643560,-0.67175573110580448,-0.65648853778839112,-0.10414777221679688,9.83538041992187360,-0.17118541870117188
420,-2.33587789535522480,-0.68702292442321776,-0.65648853778839112,-0.09696516723632812,9.83059201660156160,-0.16160861206054686
421,-2.35877871513366680,-0.67175573110580448,-0.65648853778839112,-0.10295067138671874,9.83538041992187360,-0.17597382202148438
422,-2.38931298255920400,-0.66412216424942016,-0.65648853778839112,-0.09576806640625000,9.83059201660156160,-0.16639701538085936
423,-2.36641216278076160,-0.67175573110580448,-0.62595421075820920,-0.10414777221679688,9.83059201660156160,-0.16879121704101562
424,-2.37404584884643560,-0.68702292442321776,-0.66412216424942016,-0.10414777221679688,9.83538041992187360,-0.17118541870117188
425,-2.38931298255920400,-0.63358777761459352,-0.64885497093200680,-0.09576806640625000,9.83059201660156160,-0.16519991455078122
426,-2.35114502906799320,-0.65648853778839112,-0.65648853778839112,-0.10295067138671874,9.83538041992187360,-0.17118541870117188
427,-2.38931298255920400,-0.68702292442321776,-0.62595421075820920,-0.10055646972656250,9.83538041992187360,-0.16400281372070310
428,-2.36641216278076160,-0.67175573110580448,-0.65648853778839112,-0.09935936889648436,9.83538041992187360,-0.17118541870117188
429,-2.35114502906799320,-0.65648853778839112,-0.65648853778839112,-0.10295067138671874,9.84016882324218720,-0.17118541870117188
430,-2.37404584884643560,-0.65648853778839112,-0.65648853778839112,-0.09935936889648436,9.83059201660156160,-0.16639701538085936
431,-2.36641216278076160,-0.67938929796218872,-0.64885497093200680,-0.10414777221679688,9.83538041992187360,-0.16998831787109376
432,-2.36641216278076160,-0.68702292442321776,-0.65648853778839112,-0.09935936889648436,9.83059201660156160,-0.16160861206054686
433,-2.37404584884643560,-0.64122140407562256,-0.65648853778839112,-0.09935936889648436,9.83538041992187360,-0.17597382202148438
434,-2.38931298255920400,-0.67175573110580448,-0.64122140407562256,-0.10055646972656250,9.83538041992187360,-0.16519991455078122
435,-2.37404584884643560,-0.67938929796218872,-0.65648853778839112,-0.09935936889648436,9.84016882324218720,-0.17118541870117188
436,-2.36641216278076160,-0.65648853778839112,-0.67175573110580448,-0.09935936889648436,9.83538041992187360,-0.17238251953125000
437,-2.36641216278076160,-0.66412216424942016,-0.65648853778839112,-0.09935936889648436,9.83059201660156160,-0.16639701538085936
438,-2.38167929649353040,-0.66412216424942016,-0.69465649127960208,-0.10534487304687500,9.83538041992187360,-0.17357962036132812
439,-2.35877871513366680,-0.67175573110580448,-0.66412216424942016,-0.09816226806640624,9.83059201660156160,-0.16160861206054686
440,-2.35877871513366680,-0.65648853778839112,-0.66412216424942016,-0.09816226806640624,9.83059201660156160,-0.17597382202148438
441,-2.37404584884643560,-0.67175573110580448,-0.67938929796218872,-0.09935936889648436,9.83538041992187360,-0.16759411621093748
442,-2.36641216278076160,-0.67175573110580448,-0.65648853778839112,-0.09935936889648436,9.83059201660156160,-0.16639701538085936
443,-2.36641216278076160,-0.67175573110580448,-0.65648853778839112,-0.10414777221679688,9.83538041992187360,-0.17118541870117188
444,-2.35114502906799320,-0.67175573110580448,-0.70229005813598632,-0.09816226806640624,9.83538041992187360,-0.16519991455078122
445,-2.37404584884643560,-0.68702292442321776,-0.64122140407562256,-0.09935936889648436,9.83059201660156160,-0.16519991455078122
446,-2.35114502906799320,-0.65648853778839112,-0.62595421075820920,-0.10295067138671874,9.83538041992187360,-0.16879121704101562
447,-2.35114502906799320,-0.67175573110580448,-0.67175573110580448,-0.09816226806640624,9.83059201660156160,-0.16759411621093748
448,-2.38167929649353040,-0.67175573110580448,-0.65648853778839112,-0.10534487304687500,9.83538041992187360,-0.18076222534179688
449,-2.35114502906799320,-0.65648853778839112,-0.70229005813598632,-0.09816226806640624,9.83059201660156160,-0.16041151123046874
450,-2.39694666862487800,-0.67175573110580448,-0.65648853778839112,-0.10175357055664062,9.83538041992187360,-0.17118541870117188
451,-2.37404584884643560,-0.67938929796218872,-0.65648853778839112,-0.10414777221679688,9.83059201660156160,-0.16639701538085936
452,-2.37404584884643560,-0.67175573110580448,-0.66412216424942016,-0.09935936889648436,9.83059201660156160,-0.17118541870117188
453,-2.35877871513366680,-0.66412216424942016,-0.65648853778839112,-0.10295067138671874,9.83538041992187360,-0.17118541870117188
454,-2.36641216278076160,-0.67175573110580448,-0.65648853778839112,-0.09935936889648436,9.83059201660156160,-0.16160861206054686
455,-2.37404584884643560,-0.65648853778839112,-0.65648853778839112,-0.09457096557617186,9.83538041992187360,-0.17118541870117188
456,-2.39694666862487800,-0.65648853778839112,-0.65648853778839112,-0.09696516723632812,9.83059201660156160,-0.16639701538085936
457,-2.39694666862487800,-0.67175573110580448,-0.65648853778839112,-0.09696516723632812,9.83538041992187360,-0.17118541870117188
458,-2.38167929649353040,-0.68702292442321776,-0.64122140407562256,-0.10055646972656250,9.83059201660156160,-0.16519991455078122
459,-2.37404584884643560,-0.68702292442321776,-0.65648853778839112,-0.10414777221679688,9.83538041992187360,-0.16639701538085936
460,-2.36641216278076160,-0.67938929796218872,-0.63358777761459352,-0.09935936889648436,9.83538041992187360,-0.16879121704101562
461,-2.37404584884643560,-0.68702292442321776,-0.68702292442321776,-0.10414777221679688,9.83538041992187360,-0.16400281372070310
462,-2.38931298255920400,-0.66412216424942016,-0.67175573110580448,-0.09097966308593750,9.83059201660156160,-0.16759411621093748
463,-2.36641216278076160,-0.67175573110580448,-0.64885497093200680,-0.09935936889648436,9.83538041992187360,-0.16998831787109376
464,-2.37404584884643560,-0.66412216424942016,-0.65648853778839112,-0.09935936889648436,9.83059201660156160,-0.16160861206054686
465,-2.37404584884643560,-0.67938929796218872,-0.63358777761459352,-0.09935936889648436,9.84016882324218720,-0.17357962036132812
466,-2.36641216278076160,-0.65648853778839112,-0.68702292442321776,-0.09935936889648436,9.83059201660156160,-0.15921441040039062
467,-2.38167929649353040,-0.66412216424942016,-0.67175573110580448,-0.11013327636718750,9.83538041992187360,-0.17717092285156250
468,-2.37404584884643560,-0.68702292442321776,-0.66412216424942016,-0.09935936889648436,9.83538041992187360,-0.16160861206054686
469,-2.34351134300231920,-0.67175573110580448,-0.67938929796218872,-0.09696516723632812,9.83538041992187360,-0.16280571289062498
470,-2.37404584884643560,-0.67175573110580448,-0.65648853778839112,-0.10414777221679688,9.83538041992187360,-0.17118541870117188
471,-2.35877871513366680,-0.68702292442321776,-0.67938929796218872,-0.10295067138671874,9.83538041992187360,-0.15801730957031248
472,-2.35114502906799320,-0.64122140407562256,-0.65648853778839112,-0.10295067138671874,9.83538041992187360,-0.17118541870117188
473,-2.36641216278076160,-0.68702292442321776,-0.62595421075820920,-0.09935936889648436,9.83059201660156160,-0.16400281372070310
474,-2.36641216278076160,-0.67175573110580448,-0.64122140407562256,-0.10414777221679688,9.83538041992187360,-0.16998831787109376
475,-2.36641216278076160,-0.65648853778839112,-0.66412216424942016,-0.10414777221679688,9.84016882324218720,-0.16639701538085936
476,-2.34351134300231920,-0.66412216424942016,-0.66412216424942016,-0.10175357055664062,9.83538041992187360,-0.16639701538085936
477,-2.38167929649353040,-0.66412216424942016,-0.63358777761459352,-0.10055646972656250,9.83059201660156160,-0.16879121704101562
478,-2.37404584884643560,-0.69465649127960208,-0.65648853778839112,-0.10414777221679688,9.83538041992187360,-0.16639701538085936
479,-2.38167929649353040,-0.67938929796218872,-0.65648853778839112,-0.10055646972656250,9.83538041992187360,-0.17118541870117188
480,-2.35877871513366680,-0.66412216424942016,-0.65648853778839112,-0.09816226806640624,9.83538041992187360,-0.17118541870117188
481,-2.37404584884643560,-0.67175573110580448,-0.65648853778839112,-0.10414777221679688,9.83538041992187360,-0.16639701538085936
482,-2.37404584884643560,-0.66412216424942016,-0.64122140407562256,-0.09935936889648436,9.83538041992187360,-0.16998831787109376
483,-2.35114502906799320,-0.67175573110580448,-0.65648853778839112,-0.09816226806640624,9.83059201660156160,-0.16160861206054686
484,-2.38167929649353040,-0.68702292442321776,-0.64885497093200680,-0.10534487304687500,9.84016882324218720,-0.16998831787109376
485,-2.36641216278076160,-0.66412216424942016,-0.66412216424942016,-0.09935936889648436,9.83538041992187360,-0.16639701538085936
486,-2.37404584884643560,-0.68702292442321776,-0.66412216424942016,-0.10414777221679688,9.83059201660156160,-0.17118541870117188
487,-2.35877871513366680,-0.68702292442321776,-0.67938929796218872,-0.09337386474609374,9.83538041992187360,-0.16759411621093748
488,-2.38167929649353040,-0.67175573110580448,-0.65648853778839112,-0.10055646972656250,9.83538041992187360,-0.16639701538085936
489,-2.35877871513366680,-0.65648853778839112,-0.63358777761459352,-0.10295067138671874,9.83538041992187360,-0.17357962036132812
490,-2.37404584884643560,-0.67175573110580448,-0.66412216424942016,-0.09935936889648436,9.83538041992187360,-0.16160861206054686
491,-2.38931298255920400,-0.67175573110580448,-0.63358777761459352,-0.09576806640625000,9.83538041992187360,-0.16879121704101562
492,-2.33587789535522480,-0.68702292442321776,-0.68702292442321776,-0.09696516723632812,9.83538041992187360,-0.16400281372070310
493,-2.35114502906799320,-0.68702292442321776,-0.65648853778839112,-0.09816226806640624,9.83538041992187360,-0.17118541870117188
494,-2.35877871513366680,-0.67938929796218872,-0.65648853778839112,-0.09816226806640624,9.83538041992187360,-0.17118541870117188
495,-2.38167929649353040,-0.67175573110580448,-0.62595421075820920,-0.09576806640625000,9.83538041992187360,-0.15921441040039062
496,-2.37404584884643560,-0.68702292442321776,-0.62595421075820920,-0.10414777221679688,9.83538041992187360,-0.17357962036132812
497,-2.37404584884643560,-0.67175573110580448,-1.97709929943084720,-0.09935936889648436,9.85453403320312480,-0.16400281372070310
498,-2.55725193023681640,-0.65648853778839112,-7.84732818603515680,-0.11372457885742186,9.90241806640624960,-0.16519991455078122
499,-2.95419859886169440,-0.65648853778839112,-21.85496139526367200,-0.21667525024414060,9.92636008300781120,-0.16639701538085936
500,-3.18320608139038080,-0.65648853778839112,-31.73282432556152400,-0.44053310546875000,9.89762966308593600,-0.15083470458984374
501,-3.40458011627197280,-0.63358777761459352,-39.96946716308593600,-0.74579381713867184,9.85453403320312480,-0.15562310791015624
502,-3.38931298255920400,-0.62595421075820920,-40.47328186035156000,-1.10372696533203120,9.76235726928711040,-0.14245499877929688
503,-3.41221380233764640,-0.68702292442321776,-40.45801544189452800,-1.45926591186523420,9.72405004272460800,-0.13168109130859374
504,-3.39694666862487800,-0.67175573110580448,-40.61832046508788800,-1.80762225341796880,9.65820949707031200,-0.11971008300781250
505,-3.36641216278076160,-0.67938929796218872,-40.54198455810547200,-2.15956989746093760,9.59476315307617120,-0.10893617553710936
506,-3.38931298255920400,-0.64885497093200680,-40.74045944213867200,-2.50194073486328120,9.51096609497070240,-0.10534487304687500
507,-3.39694666862487800,-0.63358777761459352,-40.48091506958008000,-2.85628258056640640,9.40202991943359360,-0.08978256225585938
508,-3.45038175582885760,-0.65648853778839112,-40.53435134887695200,-3.19147081298828080,9.29069954223632640,-0.08978256225585938
509,-3.41221380233764640,-0.63358777761459352,-40.59542083740234400,-3.52785614624023400,9.17218656005859360,-0.07541735229492188
510,-3.41221380233764640,-0.61068701744079592,-40.28244400024414400,-3.85825597534179680,9.03092866210937440,-0.06464344482421874
511,-3.41221380233764640,-0.65648853778839112,-40.48091506958008000,-4.18386740112304720,8.88368526000976480,-0.06105214233398438
512,-3.30534362792968760,-0.60305345058441160,-40.64885330200195200,-4.50109912109375040,8.73404765624999840,-0.04548983154296876
513,-3.49618315696716320,-0.69465649127960208,-40.92366409301757600,-4.81354243774414080,8.57363614501953120,-0.04309562988281250
514,-3.41221380233764640,-0.65648853778839112,-40.45801544189452800,-5.12718285522460880,8.37611450805664000,-0.03112462158203125
515,-3.38931298255920400,-0.65648853778839112,-40.45038223266601600,-5.42286676025390640,8.18936677856445280,-0.02513911743164063
516,-3.38167929649353040,-0.65648853778839112,-40.56488418579101600,-5.71376226196289040,7.98346543579101600,-0.01556231079101563
517,-3.39694666862487800,-0.64122140407562256,-40.48854827880859200,-6.00226356201171840,7.77397279052734400,-0.00957680664062500
518,-3.41984724998474120,-0.65648853778839112,-40.63358688354492000,-6.28238515624999920,7.54293233032226560,-0.00598550415039063
519,-3.42748093605041520,-0.67938929796218872,-40.34351348876952800,-6.54574733886718720,7.30590636596679680,0.00598550415039063
520,-3.41221380233764640,-0.67175573110580448,-40.63358688354492000,-6.81270082397460880,7.06768330078124960,0.01197100830078125
521,-3.37404584884643560,-0.62595421075820920,-40.83969497680664000,-7.05930359497070320,6.82706603393554640,0.02035071411132812
522,-3.41221380233764640,-0.64885497093200680,-40.54198455810547200,-7.30590636596679680,6.55652124633789040,0.02394201660156250
523,-3.41221380233764640,-0.64885497093200680,-40.74045944213867200,-7.54053812866210880,6.28358225708007840,0.03232172241210937
524,-3.38931298255920400,-0.64122140407562256,-40.49618148803711200,-7.75960758056640480,6.00226356201171840,0.03711012573242188
525,-3.41221380233764640,-0.63358777761459352,-40.74809265136718400,-7.97628283081054560,5.72453616943359280,0.04189852905273437
526,-3.31297707557678240,-0.61832058429718016,-40.26717758178711200,-8.17500156860351520,5.42406386108398400,0.04548983154296876
527,-3.42748093605041520,-0.65648853778839112,-40.65649032592773600,-8.36534060058593600,5.13436546020507760,0.05386953735351562
528,-3.41221380233764640,-0.63358777761459352,-40.41221237182616800,-8.55089122924804640,4.81473953857421840,0.04908113403320312
529,-3.38931298255920400,-0.64885497093200680,-40.73282623291016000,-8.71728824462890560,4.50229622192382800,0.06224924316406250
530,-3.40458011627197280,-0.66412216424942016,-40.55725097656249600,-8.87650265502929760,4.18506450195312480,0.06105214233398438
531,-3.40458011627197280,-0.62595421075820920,-40.47328186035156000,-9.02494315795898240,3.86304437866210880,0.07302315063476562
532,-3.41221380233764640,-0.67175573110580448,-40.74809265136718400,-9.15901845092773440,3.53384165039062480,0.06584054565429688
533,-3.41984724998474120,-0.62595421075820920,-40.61832046508788800,-9.27992563476562400,3.19745631713867160,0.07541735229492188
534,-3.41984724998474120,-0.66412216424942016,-40.57251739501952800,-9.39005891113281120,2.84909997558593720,0.07422025146484376
535,-3.40458011627197280,-0.61068701744079592,-40.54961776733398400,-9.48462987670898400,2.51391174316406240,0.07661445312500000
536,-3.39694666862487800,-0.65648853778839112,-40.61068725585937600,-9.56962403564452960,2.16555540161132800,0.08140285644531250
537,-3.38167929649353040,-0.66412216424942016,-40.62595367431640800,-9.64025298461914080,1.81959326171874960,0.08020575561523438
538,-3.40458011627197280,-0.62595421075820920,-40.48854827880859200,-9.70010802612304640,1.46405431518554680,0.08619125976562500
539,-3.38167929649353040,-0.63358777761459352,-40.70228958129883200,-9.74559785766601440,1.11330377197265620,0.08858546142578126
540,-3.45038175582885760,-0.67938929796218872,-40.30534362792968800,-9.77552537841796960,0.74579381713867184,0.08140285644531250
541,-3.41984724998474120,-0.62595421075820920,-40.75572586059570400,-9.80665000000000000,0.40581718139648440,0.08858546142578126
542,-3.41984724998474120,-0.62595421075820920,-40.42748260498047200,-9.81143840332031200,0.04189852905273437,0.08619125976562500
543,-3.43511462211608880,-0.64122140407562256,-40.42748260498047200,-9.81143840332031200,-0.32321722412109372,0.08140285644531250
544,-3.41221380233764640,-0.65648853778839112,-40.47328186035156000,-9.78629928588867040,-0.67396776733398432,0.08738836059570312
545,-3.41984724998474120,-0.61068701744079592,-40.48854827880859200,-9.75876596679687360,-1.02950671386718740,0.07661445312500000
546,-3.41221380233764640,-0.64885497093200680,-40.62595367431640800,-9.70968483276367040,-1.38145435791015620,0.08978256225585938
547,-3.38931298255920400,-0.65648853778839112,-40.51145172119140800,-9.66060369873046720,-1.73699330444335920,0.07422025146484376
548,-3.40458011627197280,-0.63358777761459352,-40.64122009277344000,-9.58039794311523360,-2.07936414184570320,0.08379705810546874
549,-3.39694666862487800,-0.65648853778839112,-40.54198455810547200,-9.50737479248046720,-2.43131178588867200,0.07182604980468750
550,-3.43511462211608880,-0.60305345058441160,-40.58015441894531200,-9.40083281860351520,-2.76650001831054640,0.07422025146484376
551,-3.40458011627197280,-0.64122140407562256,-40.51145172119140800,-9.30267055053710880,-3.11006795654296880,0.06943184814453126
552,-3.41221380233764640,-0.62595421075820920,-40.48854827880859200,-9.17817206420898240,-3.44884749145507760,0.06224924316406250
553,-3.35114502906799320,-0.59541982412338256,-40.88549804687500000,-9.05367357788085920,-3.77206471557617120,0.06943184814453126
554,-3.41221380233764640,-0.70992368459701536,-40.56488418579101600,-8.90044467163085920,-4.11563265380859360,0.05626373901367188
555,-3.37404584884643560,-0.65648853778839112,-40.58778762817383200,-8.74482156372070240,-4.42328756713867120,0.05865794067382812
556,-3.41984724998474120,-0.63358777761459352,-40.46564865112304800,-8.58560715332031200,-4.75129319458007760,0.04429273071289063
557,-3.41221380233764640,-0.63358777761459352,-40.48854827880859200,-8.40245072631835840,-5.04338579711914000,0.04309562988281250
558,-3.40458011627197280,-0.63358777761459352,-40.72518920898437600,-8.21091459350585920,-5.35463201293945280,0.03351882324218750
559,-3.39694666862487800,-0.65648853778839112,-40.53435134887695200,-8.01339295654296960,-5.64911881713867200,0.02992752075195313
560,-3.38167929649353040,-0.64885497093200680,-40.57251739501952800,-7.80629451293945280,-5.94001431884765520,0.02633621826171875
561,-3.41221380233764640,-0.63358777761459352,-40.41984558105468800,-7.58363375854492160,-6.22133301391601520,0.01915361328125000
562,-3.41984724998474120,-0.65648853778839112,-40.59542083740234400,-7.35498750000000000,-6.49187780151367120,0.01077390747070313
563,-3.38931298255920400,-0.62595421075820920,-40.58778762817383200,-7.10359632568359360,-6.75763418579101520,0.00119710083007813
564,-3.38167929649353040,-0.62595421075820920,-40.54198455810547200,-6.85819065551757760,-7.00663115844726560,-0.00359130249023438
565,-3.38931298255920400,-0.63358777761459352,-40.43511581420898400,-6.59602557373046880,-7.25083972778320320,-0.00478840332031250
566,-3.38931298255920400,-0.65648853778839112,-40.59542083740234400,-6.33266339111328080,-7.48786569213867040,-0.01795651245117188
567,-3.34351134300231920,-0.62595421075820920,-40.35114669799804800,-6.05613309936523440,-7.72010325317382720,-0.02753331909179688
568,-3.40458011627197280,-0.65648853778839112,-40.65649032592773600,-5.76882890014648400,-7.92361039428710880,-0.03232172241210937
569,-3.40458011627197280,-0.60305345058441160,-40.45038223266601600,-5.47673629760742080,-8.14387694702148480,-0.03471592407226563
570,-3.38167929649353040,-0.60305345058441160,-40.63358688354492000,-5.17267268676757760,-8.33062467651367200,-0.04429273071289063
571,-3.39694666862487800,-0.60305345058441160,-40.52671813964844000,-4.87220037841796800,-8.50779559936523520,-0.05985504150390626
572,-3.39694666862487800,-0.62595421075820920,-40.46564865112304800,-4.56095416259765600,-8.67778391723632800,-0.06464344482421874
573,-3.41984724998474120,-0.63358777761459352,-40.57251739501952800,-4.24252534179687520,-8.84058963012695360,-0.07302315063476562
574,-3.41221380233764640,-0.65648853778839112,-40.63358688354492000,-3.91571681518554720,-8.99621273803710880,-0.07781155395507812
575,-3.35877871513366680,-0.63358777761459352,-40.60305404663085600,-3.58651408691406240,-9.12789382934570240,-0.08978256225585938
576,-3.35877871513366680,-0.61068701744079592,-40.48854827880859200,-3.25611425781250000,-9.26077202148437440,-0.10534487304687500
577,-3.38931298255920400,-0.64122140407562256,-40.52671813964844000,-2.91374342041015640,-9.37329949951171840,-0.10773907470703124
578,-3.41221380233764640,-0.65648853778839112,-40.73282623291016000,-2.57017548217773400,-9.46547626342773440,-0.11971008300781250
579,-3.41221380233764640,-0.65648853778839112,-40.52671813964844000,-2.22062203979492160,-9.56124432983398400,-0.13168109130859374
580,-3.38167929649353040,-0.60305345058441160,-40.89313125610351200,-1.86867439575195280,-9.62828197631835840,-0.13168109130859374
581,-3.47328233718872080,-0.65648853778839112,-40.16793823242187200,-1.51672675170898420,-9.71447323608398400,-0.15203180541992186
582,-3.43511462211608880,-0.64122140407562256,-40.62595367431640800,-1.16956751098632820,-9.73721815185546880,-0.14963760375976562
583,-3.39694666862487800,-0.61068701744079592,-40.64885330200195200,-0.80684595947265632,-9.79228479003906240,-0.16519991455078122
584,-3.26717567443847640,-0.62595421075820920,-34.87022781372070400,-0.46686932373046872,-9.88326445312500000,-0.17717092285156250
585,-3.00000000000000000,-0.64122140407562256,-25.25190925598144400,-0.19153613281250000,-9.89762966308593600,-0.17956512451171874
586,-2.73282432556152360,-0.65648853778839112,-14.84732818603515600,-0.01795651245117188,-9.89762966308593600,-0.18195932617187500
587,-2.48091602325439440,-0.68702292442321776,-4.54198455810546880,0.08259995727539062,-9.89762966308593600,-0.18794483032226560
588,-2.38167929649353040,-0.68702292442321776,-0.85496181249618528,0.09576806640625000,-9.81622680664062560,-0.19632453613281248
589,-2.38167929649353040,-0.68702292442321776,-0.67175573110580448,0.09097966308593750,-9.82580361328124960,-0.18674772949218748
590,-2.39694666862487800,-0.67175573110580448,-0.65648853778839112,0.09935936889648436,-9.82101520996093600,-0.19033903198242184
591,-2.38931298255920400,-0.67175573110580448,-0.65648853778839112,0.10414777221679688,-9.82101520996093600,-0.19033903198242184
592,-2.37404584884643560,-0.66412216424942016,-0.65648853778839112,0.09576806640625000,-9.81622680664062560,-0.19033903198242184
593,-2.36641216278076160,-0.67938929796218872,-0.65648853778839112,0.09696516723632812,-9.82101520996093600,-0.19033903198242184
594,-2.39694666862487800,-0.67938929796218872,-0.65648853778839112,0.09935936889648436,-9.81622680664062560,-0.18555062866210936
595,-2.35114502906799320,-0.68702292442321776,-0.64885497093200680,0.09816226806640624,-9.82580361328124960,-0.18914193115234372
596,-2.38167929649353040,-0.68702292442321776,-0.63358777761459352,0.10055646972656250,-9.81622680664062560,-0.18315642700195312
597,-2.37404584884643560,-0.69465649127960208,-0.65648853778839112,0.09576806640625000,-9.82101520996093600,-0.19033903198242184
598,-2.35114502906799320,-0.68702292442321776,-0.66412216424942016,0.10295067138671874,-9.82101520996093600,-0.19512743530273436
599,-2.35114502906799320,-0.68702292442321776,-0.67938929796218872,0.09816226806640624,-9.81622680664062560,-0.18195932617187500
600,-2.37404584884643560,-0.67175573110580448,-0.66412216424942016,0.10055646972656250,-9.82580361328124960,-0.19033903198242184
601,-2.37404584884643560,-0.68702292442321776,-0.66412216424942016,0.09097966308593750,-9.82101520996093600,-0.18555062866210936
602,-2.38167929649353040,-0.67938929796218872,-0.67175573110580448,0.09576806640625000,-9.82101520996093600,-0.19632453613281248
603,-2.39694666862487800,-0.68702292442321776,-0.66412216424942016,0.09935936889648436,-9.82101520996093600,-0.19033903198242184
604,-2.37404584884643560,-0.65648853778839112,-0.66412216424942016,0.09576806640625000,-9.82101520996093600,-0.19033903198242184
605,-2.38931298255920400,-0.68702292442321776,-0.67938929796218872,0.09935936889648436,-9.81622680664062560,-0.19153613281250000
606,-2.40458011627197280,-0.69465649127960208,-0.64885497093200680,0.09816226806640624,-9.82101520996093600,-0.18435352783203124
607,-2.37404584884643560,-0.68702292442321776,-0.67938929796218872,0.09576806640625000,-9.82101520996093600,-0.19632453613281248
608,-2.37404584884643560,-0.68702292442321776,-0.68702292442321776,0.09576806640625000,-9.82101520996093600,-0.18315642700195312
609,-2.39694666862487800,-0.67175573110580448,-0.65648853778839112,0.10414777221679688,-9.82101520996093600,-0.19033903198242184
610,-2.38931298255920400,-0.68702292442321776,-0.67175573110580448,0.09935936889648436,-9.82101520996093600,-0.19153613281250000
611,-2.37404584884643560,-0.67175573110580448,-0.65648853778839112,0.09576806640625000,-9.81622680664062560,-0.18555062866210936
612,-2.37404584884643560,-0.67938929796218872,-0.65648853778839112,0.09576806640625000,-9.82580361328124960,-0.19033903198242184
613,-2.37404584884643560,-0.68702292442321776,-0.65648853778839112,0.09576806640625000,-9.82101520996093600,-0.19033903198242184
614,-2.37404584884643560,-0.68702292442321776,-0.65648853778839112,0.09576806640625000,-9.81622680664062560,-0.18555062866210936
615,-2.38931298255920400,-0.68702292442321776,-0.65648853778839112,0.09457096557617186,-9.82580361328124960,-0.19512743530273436
616,-2.37404584884643560,-0.67175573110580448,-0.65648853778839112,0.09576806640625000,-9.82101520996093600,-0.18555062866210936
617,-2.36641216278076160,-0.67938929796218872,-0.65648853778839112,0.10175357055664062,-9.82101520996093600,-0.19512743530273436
618,-2.37404584884643560,-0.68702292442321776,-0.65648853778839112,0.09576806640625000,-9.81143840332031200,-0.18555062866210936
619,-2.38167929649353040,-0.67175573110580448,-0.64885497093200680,0.10055646972656250,-9.82101520996093600,-0.19393033447265624
620,-2.38931298255920400,-0.67175573110580448,-0.68702292442321776,0.09935936889648436,-9.82580361328124960,-0.18315642700195312
621,-2.40458011627197280,-0.67175573110580448,-0.67938929796218872,0.10295067138671874,-9.81622680664062560,-0.18195932617187500
622,-2.37404584884643560,-0.68702292442321776,-0.65648853778839112,0.10055646972656250,-9.82580361328124960,-0.19512743530273436
623,-2.37404584884643560,-0.69465649127960208,-0.67175573110580448,0.09576806640625000,-9.82101520996093600,-0.18195932617187500
624,-2.36641216278076160,-0.67175573110580448,-0.65648853778839112,0.10175357055664062,-9.82101520996093600,-0.19033903198242184
625,-2.38167929649353040,-0.68702292442321776,-0.68702292442321776,0.09576806640625000,-9.82101520996093600,-0.18315642700195312
626,-2.38167929649353040,-0.66412216424942016,-0.67938929796218872,0.09576806640625000,-9.81622680664062560,-0.18674772949218748
627,-2.35877871513366680,-0.68702292442321776,-0.64122140407562256,0.10175357055664062,-9.82101520996093600,-0.18914193115234372
628,-2.40458011627197280,-0.65648853778839112,-0.68702292442321776,0.10295067138671874,-9.82101520996093600,-0.18315642700195312
629,-2.33587789535522480,-0.67175573110580448,-0.65648853778839112,0.10414777221679688,-9.82580361328124960,-0.19512743530273436
630,-2.38931298255920400,-0.69465649127960208,-0.64885497093200680,0.09935936889648436,-9.82101520996093600,-0.17956512451171874
631,-2.35114502906799320,-0.67175573110580448,-0.65648853778839112,0.09816226806640624,-9.82580361328124960,-0.19512743530273436
632,-2.38167929649353040,-0.67175573110580448,-0.67938929796218872,0.09097966308593750,-9.82101520996093600,-0.18195932617187500
633,-2.37404584884643560,-0.66412216424942016,-0.67938929796218872,0.10055646972656250,-9.82101520996093600,-0.18195932617187500
634,-2.38931298255920400,-0.68702292442321776,-0.66412216424942016,0.10414777221679688,-9.82101520996093600,-0.19033903198242184
635,-2.38931298255920400,-0.66412216424942016,-0.69465649127960208,0.09457096557617186,-9.82101520996093600,-0.17836802368164062
636,-2.37404584884643560,-0.68702292442321776,-0.65648853778839112,0.10055646972656250,-9.82101520996093600,-0.19991583862304688
637,-2.40458011627197280,-0.67938929796218872,-0.70229005813598632,0.09337386474609374,-9.82101520996093600,-0.18435352783203124
638,-2.35114502906799320,-0.67175573110580448,-0.66412216424942016,0.09337386474609374,-9.82101520996093600,-0.19033903198242184
639,-2.38167929649353040,-0.65648853778839112,-0.68702292442321776,0.09576806640625000,-9.82101520996093600,-0.18794483032226560
640,-2.40458011627197280,-0.67175573110580448,-0.65648853778839112,0.09816226806640624,-9.81622680664062560,-0.18555062866210936
641,-2.36641216278076160,-0.69465649127960208,-0.65648853778839112,0.10175357055664062,-9.82580361328124960,-0.19033903198242184
642,-2.38167929649353040,-0.67175573110580448,-0.65648853778839112,0.10055646972656250,-9.82101520996093600,-0.18555062866210936
643,-2.36641216278076160,-0.68702292442321776,-0.65648853778839112,0.09696516723632812,-9.82101520996093600,-0.19033903198242184
644,-2.38167929649353040,-0.67175573110580448,-0.68702292442321776,0.09097966308593750,-9.81622680664062560,-0.18794483032226560
645,-2.36641216278076160,-0.67175573110580448,-0.67938929796218872,0.09696516723632812,-9.82101520996093600,-0.18195932617187500
646,-2.37404584884643560,-0.67938929796218872,-0.65648853778839112,0.09576806640625000,-9.82101520996093600,-0.19033903198242184
647,-2.37404584884643560,-0.67938929796218872,-0.65648853778839112,0.09097966308593750,-9.82101520996093600,-0.18555062866210936
648,-2.37404584884643560,-0.68702292442321776,-0.65648853778839112,0.10055646972656250,-9.82101520996093600,-0.19033903198242184
649,-2.38167929649353040,-0.68702292442321776,-0.65648853778839112,0.09576806640625000,-9.82101520996093600,-0.19512743530273436
650,-2.36641216278076160,-0.67175573110580448,-0.65648853778839112,0.10175357055664062,-9.82101520996093600,-0.19033903198242184
651,-2.35877871513366680,-0.65648853778839112,-0.65648853778839112,0.09217676391601562,-9.82580361328124960,-0.19033903198242184
652,-2.37404584884643560,-0.67175573110580448,-0.65648853778839112,0.09576806640625000,-9.82101520996093600,-0.18076222534179688
653,-2.37404584884643560,-0.68702292442321776,-0.66412216424942016,0.09576806640625000,-9.82580361328124960,-0.19033903198242184
654,-2.40458011627197280,-0.68702292442321776,-0.65648853778839112,0.09816226806640624,-9.82101520996093600,-0.18555062866210936
655,-2.33587789535522480,-0.69465649127960208,-0.63358777761459352,0.09935936889648436,-9.82580361328124960,-0.18794483032226560
656,-2.37404584884643560,-0.68702292442321776,-0.64122140407562256,0.09576806640625000,-9.82101520996093600,-0.18914193115234372
657,-2.37404584884643560,-0.67175573110580448,-0.64885497093200680,0.09576806640625000,-9.82101520996093600,-0.18914193115234372
658,-2.37404584884643560,-0.67175573110580448,-0.68702292442321776,0.09576806640625000,-9.81622680664062560,-0.18794483032226560
659,-2.39694666862487800,-0.68702292442321776,-0.64885497093200680,0.10414777221679688,-9.82101520996093600,-0.18914193115234372
660,-2.38167929649353040,-0.66412216424942016,-0.65648853778839112,0.10055646972656250,-9.82101520996093600,-0.19033903198242184
661,-2.38167929649353040,-0.66412216424942016,-0.62595421075820920,0.09576806640625000,-9.82101520996093600,-0.18794483032226560
662,-2.37404584884643560,-0.68702292442321776,-0.64122140407562256,0.09576806640625000,-9.82101520996093600,-0.18435352783203124
663,-2.37404584884643560,-0.69465649127960208,-0.66412216424942016,0.09576806640625000,-9.82580361328124960,-0.19512743530273436
664,-2.37404584884643560,-0.68702292442321776,-0.65648853778839112,0.09576806640625000,-9.81622680664062560,-0.18555062866210936
665,-2.38167929649353040,-0.67175573110580448,-0.65648853778839112,0.09576806640625000,-9.82101520996093600,-0.19033903198242184
666,-2.35877871513366680,-0.66412216424942016,-0.62595421075820920,0.09696516723632812,-9.81622680664062560,-0.18315642700195312
667,-2.37404584884643560,-0.67175573110580448,-0.64885497093200680,0.10055646972656250,-9.82101520996093600,-0.18914193115234372
668,-2.37404584884643560,-0.68702292442321776,-0.63358777761459352,0.09576806640625000,-9.82580361328124960,-0.18794483032226560
669,-2.41221380233764640,-0.66412216424942016,-0.65648853778839112,0.09816226806640624,-9.82101520996093600,-0.18555062866210936
670,-2.38167929649353040,-0.66412216424942016,-0.67175573110580448,0.09576806640625000,-9.82580361328124960,-0.19153613281250000
671,-2.38167929649353040,-0.68702292442321776,-0.65648853778839112,0.09576806640625000,-9.81622680664062560,-0.18076222534179688
672,-2.36641216278076160,-0.67938929796218872,-0.66412216424942016,0.09696516723632812,-9.82580361328124960,-0.19033903198242184
673,-2.36641216278076160,-0.68702292442321776,-0.65648853778839112,0.10175357055664062,-9.82101520996093600,-0.19033903198242184
674,-2.38167929649353040,-0.65648853778839112,-0.64885497093200680,0.09576806640625000,-9.81622680664062560,-0.18914193115234372
675,-2.38167929649353040,-0.67175573110580448,-0.66412216424942016,0.09576806640625000,-9.81622680664062560,-0.18555062866210936
676,-2.38167929649353040,-0.67175573110580448,-0.68702292442321776,0.09576806640625000,-9.82101520996093600,-0.18315642700195312
677,-2.35877871513366680,-0.66412216424942016,-0.70229005813598632,0.09696516723632812,-9.82580361328124960,-0.18914193115234372
678,-2.36641216278076160,-0.67175573110580448,-0.65648853778839112,0.10175357055664062,-9.81622680664062560,-0.18555062866210936
679,-2.37404584884643560,-0.68702292442321776,-0.65648853778839112,0.09576806640625000,-9.82101520996093600,-0.19033903198242184
680,-2.38167929649353040,-0.67938929796218872,-0.66412216424942016,0.09576806640625000,-9.81622680664062560,-0.18555062866210936
681,-2.38167929649353040,-0.66412216424942016,-0.68702292442321776,0.09576806640625000,-9.82101520996093600,-0.18794483032226560
682,-2.36641216278076160,-0.66412216424942016,-0.69465649127960208,0.09696516723632812,-9.82580361328124960,-0.18794483032226560
683,-2.38931298255920400,-0.67175573110580448,-0.65648853778839112,0.10414777221679688,-9.81622680664062560,-0.19033903198242184
684,-2.39694666862487800,-0.68702292442321776,-0.68702292442321776,0.09935936889648436,-9.82101520996093600,-0.18315642700195312
685,-2.37404584884643560,-0.68702292442321776,-0.64122140407562256,0.09576806640625000,-9.82101520996093600,-0.18914193115234372
686,-2.37404584884643560,-0.67175573110580448,-0.65648853778839112,0.09576806640625000,-9.82101520996093600,-0.19033903198242184
687,-2.57251906394958480,0.32061070203781128,-0.85496181249618528,0.05147533569335938,-9.82580361328124960,-0.14844050292968750
688,-2.49618315696716320,3.01526713371276840,-0.60305345058441160,0.11971008300781250,-9.84016882324218720,-0.25737667846679684
689,-3.41221380233764640,2.16030526161193840,0.44274809956550600,0.10055646972656250,-9.85453403320312480,-0.12330138549804686
690,-7.67938947677612320,0.96183204650878912,1.22137403488159180,0.12569558715820312,-9.88326445312500000,-0.27293898925781244
691,-13.14503860473632800,-0.22900763154029848,10.27480888366699200,0.03711012573242188,-9.94551369628906240,-0.25258827514648436
692,-17.89312934875488200,-0.80152672529220576,16.63358879089355400,-0.02394201660156250,-9.90720646972656160,-0.44771571044921872
693,-21.71755790710449200,-1.03816795349121100,19.74045753479004000,-0.25139117431640624,-9.82580361328124960,-0.48243163452148432
694,-21.65648841857910000,-0.77099239826202400,19.51908493041992000,-0.40940848388671872,-9.77552537841796960,-0.73382280883789056
695,-22.54198455810546800,-0.63358777761459352,19.84732818603515600,-0.62249243164062496,-9.76475147094726560,-0.87627780761718736
696,-21.92366409301758000,-0.81679391860961920,19.54198455810546800,-0.77572133789062496,-9.71686743774414080,-1.06302553710937480
697,-21.75572586059570400,-0.67175573110580448,19.87022972106933600,-0.96845457153320304,-9.70130512695312480,-1.20907183837890600
698,-21.54198455810546800,-0.28244274854660036,19.61832046508789200,-1.14323129272460940,-9.63666168212890560,-1.40180507202148420
699,-21.53435134887695200,1.74809157848358160,19.47328186035156400,-1.38145435791015620,-9.59236895141601440,-1.50355864257812480
700,-20.96946525573730400,2.41221380233764640,19.78625869750976400,-1.48081372680664060,-9.53131680908203040,-1.73819040527343740
701,-21.61068725585937600,2.76335883140563960,19.85496139526367200,-1.66516725463867180,-9.48462987670898400,-1.91416422729492160
702,-21.67175674438476400,3.18320608139038080,20.32824516296386800,-1.83754977416992200,-9.39843861694335840,-2.05901342773437480
703,-21.45801544189453200,3.54198479652404800,19.64885520935058400,-1.99796128540039040,-9.32302126464843680,-2.24216985473632800
704,-20.91603088378906400,3.78625965118408240,19.80916023254394400,-2.17632930908203120,-9.25598361816406240,-2.38223065185546840
705,-20.51908493041992000,3.98473286628723120,19.70992279052734400,-2.32237561035156240,-9.16859525756836000,-2.58693489379882800
706,-21.24427413940429600,4.58015251159668000,19.84732818603515600,-2.49356102905273400,-9.07881269531250080,-2.71981308593750000
707,-20.96183204650878800,4.87786245346069360,20.12977027893066400,-2.63960733032226520,-8.98304462890624960,-2.88860430297851560
708,-21.07633590698242000,5.30534362792968720,19.43511390686035200,-2.79642753906250000,-8.86333454589843840,-3.05859262084960920
709,-20.77862548828124800,5.60305356979370080,19.95419883728027200,-2.93648833618164040,-8.77355198364257760,-3.21900413208007800
710,-20.48091697692871200,5.87786245346069360,19.67938995361328000,-3.07535203247070320,-8.64665929565429760,-3.38899244995117200
711,-20.25954246520996000,6.13740444183349600,19.87786293029785200,-3.21660993041992160,-8.54011732177734240,-3.54102425537109320
712,-20.32824516296386800,6.56488561630249040,19.97709846496582000,-3.36026203002929640,-8.42519564208984320,-3.70502706909179680
713,-20.52671813964843600,7.03816795349121120,19.47328186035156400,-3.49074602050781240,-8.29231744995117280,-3.85945307617187520
714,-20.09923744201660000,7.25190830230712960,20.09160232543945200,-3.60566770019531200,-8.17500156860351520,-4.02225878906250000
715,-20.09923744201660000,7.67175579071044960,19.65648841857910000,-3.73016618652343760,-8.01698425903320320,-4.17548769531249920
716,-19.93129730224609200,7.93129777908325120,20.04580116271972800,-3.84149656372070320,-7.89128867187500000,-4.33709630737304720
717,-20.00763320922851600,8.44274806976318400,19.70992279052734400,-3.96240374755859360,-7.73207426147460960,-4.48314260864257840
718,-19.75572586059570400,8.67938899993896480,19.37404632568359200,-4.05338341064453120,-7.59321056518554560,-4.64834252319335920
719,-19.65648841857910000,9.03816795349121120,20.04580116271972800,-4.16950219116210880,-7.45554396972656160,-4.79199462280273360
720,-19.41984748840332000,9.33587741851806720,19.56488609313964800,-4.25689055175781200,-7.28316145019531200,-4.94881483154296800
721,-19.16030502319336000,9.59541988372802720,20.01526641845703200,-4.34188471069335840,-7.14310065307617120,-5.09605823364257760
722,-18.88549613952636800,9.89312934875488320,19.74045753479004000,-4.42089336547851520,-6.96233842773437520,-5.24689293823242160
723,-18.64122200012207200,10.16793918609619200,19.53435134887695200,-4.49750781860351520,-6.80671531982421840,-5.39174213867187440
724,-18.73282432556152400,10.70229053497314400,19.97709846496582000,-4.56693966674804640,-6.63552990112304640,-5.53898554077148400
725,-18.55725288391113200,10.92366409301757800,19.51908493041992000,-4.62918890991210960,-6.45955607910156160,-5.68024343872070240
726,-18.13740539550781200,11.07633590698242200,20.03053474426269600,-4.68784685058593680,-6.30393297119140640,-5.82748684082031280
727,-18.47328186035156400,11.85496139526367200,19.54198455810546800,-4.74770189208984320,-6.12795914916992160,-5.95198532714843680
728,-18.05343437194824400,11.84732818603515600,19.77099227905273600,-4.78600911865234400,-5.97113894042968720,-6.10162293090820320
729,-17.64122200012207000,12.07633590698242200,19.84732818603515600,-4.82551344604492160,-5.77601150512695280,-6.23928952636718720
730,-17.17557334899902400,12.27480888366699200,19.62595367431640800,-4.85184966430664080,-5.59764348144531200,-6.37575902099609360
731,-16.80916023254394600,12.45801544189453200,19.98473358154296800,-4.87100327758789040,-5.42047255859375040,-6.51103141479492080
732,-16.41984748840332000,12.54961872100830000,19.32824516296386800,-4.89733949584960880,-5.23133062744140640,-6.62954439697265600
733,-16.58015251159668000,13.16793918609619200,19.77862548828124800,-4.91529600830078080,-5.07690462036132720,-6.75643708496093680
734,-16.58015251159668000,13.58778667449951200,19.64122200012207200,-4.91529600830078080,-4.87698878173828080,-6.88692107543945280
735,-16.22137451171875000,13.70992374420166000,19.66412162780761600,-4.91529600830078080,-4.71418306884765600,-7.01501086425781200
736,-15.95419883728027400,14.03816795349121000,19.95419883728027200,-4.90452210083007760,-4.52025273437500000,-7.12634124145507760
737,-15.48091602325439400,14.00763320922851600,19.35114479064941600,-4.89135399169921840,-4.34068760986328080,-7.24485422363281120
738,-15.16030502319336000,14.35114479064941400,19.86259460449218800,-4.87579168090820320,-4.18506450195312480,-7.36815560913085920
739,-14.64122104644775400,14.32824420928955000,19.57251930236816400,-4.84466705932617200,-3.98514866333007840,-7.48188018798828160
740,-14.67175579071045000,14.92366409301757800,19.71755790710449200,-4.81354243774414080,-3.82354005126953120,-7.58483085937500000
741,-14.38167953491211000,15.08396911621093800,19.79389381408691600,-4.76685550537109280,-3.63918652343749920,-7.70334384155273280
742,-14.29007625579834000,15.47328281402587800,19.12213706970214800,-4.72615407714843680,-3.47398660888671840,-7.81347711791992160
743,-13.95419883728027400,15.58015251159668000,19.78625869750976400,-4.67587584228515600,-3.31237799682617160,-7.91044228515624960
744,-13.35114479064941400,15.42748069763183600,19.48855018615722800,-4.61362659912109280,-3.13760127563476520,-8.01459005737304640
745,-13.19847297668457000,15.96946525573730400,20.00763320922851600,-4.55855996093750000,-2.99035787353515600,-8.10317551879882880
746,-12.89312934875488200,16.22900772094726600,19.58015251159668000,-4.48194550781250000,-2.79762463989257800,-8.20852039184570240
747,-12.48091602325439400,16.29007720947265600,19.13740539550781200,-4.39695134887695280,-2.63960733032226520,-8.30548555908203200
748,-12.06106853485107400,16.22137451171875000,19.67175483703613200,-4.31195718994140640,-2.48159002075195280,-8.40723912963867200
749,-11.84732818603515600,16.52671813964843800,19.45038223266601600,-4.22816013183593760,-2.33314951782226560,-8.48744488525390560
750,-11.43511486053466800,16.52671813964843800,19.77099227905273600,-4.13358916625976560,-2.18470901489257800,-8.57722744750976480
751,-10.89312934875488200,16.13740539550781200,19.35114479064941600,-4.04260950317382800,-2.02908590698242200,-8.64785639648437440
752,-11.12977123260498000,17.22900772094726600,19.27480888366699200,-3.94684143676757760,-1.91416422729492160,-8.72566795043945280
753,-10.86259555816650400,17.60305404663086000,19.64122200012207200,-3.83910236206054640,-1.76093532104492160,-8.80228240356445280
754,-10.53435134887695400,18.03816795349121200,19.56488609313964800,-3.72777198486328080,-1.63045133056640620,-8.88009395751953120
755,-9.73282432556152320,17.32824516296386800,19.59542083740234400,-3.58771118774414040,-1.49517893676757800,-8.95910261230468640
756,-9.05343532562255840,16.83969497680664000,19.27480888366699200,-3.47278950805664040,-1.36110364379882800,-9.02254895629882720
757,-8.88549613952636640,17.39694595336914000,19.45038223266601600,-3.35427652587890640,-1.25456166992187500,-9.08599530029296800
758,-8.69465637207031200,17.68702316284179600,19.44274902343750000,-3.21900413208007800,-1.12168347778320300,-9.15303294677734240
759,-8.70992374420166080,18.29007720947265600,19.50381660461425600,-3.08133753662109360,-1.01753570556640620,-9.20570538330078080
760,-8.45801544189453120,18.54961776733398400,19.54961776733398400,-2.94247384033203120,-0.90620532836914064,-9.26436332397460800
761,-8.15267181396484320,18.54198455810546800,19.03816795349121200,-2.79403333740234360,-0.80086045532226560,-9.31942996215820320
762,-7.71755743026733440,18.48091697692871200,19.68702316284179600,-2.64439573364257800,-0.71945759887695304,-9.37808790283203040
763,-7.17557239532470720,18.43511390686035200,19.37404632568359200,-2.50194073486328120,-0.61770402832031248,-9.41759223022460800
764,-6.68702268600463840,18.20610618591308400,19.47328186035156400,-2.34392342529296840,-0.53989247436523432,-9.46667336425781120
765,-6.23664140701293920,18.09923744201660000,19.41984748840332000,-2.18351191406249960,-0.44771571044921872,-9.51455739746093760
766,-6.07633590698242160,18.57251930236816400,18.80152702331542800,-2.03267720947265600,-0.38187516479492184,-9.54807622070312480
767,-5.89312982559204080,18.96183204650878800,19.54198455810546800,-1.86508309326171880,-0.32321722412109372,-9.58638344726562560
768,-5.66412210464477520,19.32824516296386800,19.24427413940429600,-1.70347448120117180,-0.25139117431640624,-9.61870516967773280
769,-5.28244256973266640,19.22137451171875200,19.67938995361328000,-1.53468326416015620,-0.20231004028320312,-9.64743558959960800
770,-4.88549613952636720,19.22137451171875200,19.30534362792968800,-1.36469494628906260,-0.14484920043945312,-9.67137760620117120
771,-4.38931322097778320,18.98473358154296800,19.19083976745605600,-1.18632692260742180,-0.10055646972656250,-9.70010802612304640
772,-3.93893122673034640,18.56488609313964800,19.31297683715820400,-1.02232410888671880,-0.06703764648437500,-9.71447323608398400
773,-3.50381684303283680,19.10687065124511600,19.03053474426269600,-0.83916768188476560,-0.02873041992187500,-9.73602105102538880
774,-3.22900772094726560,19.21374130249023600,19.57251930236816400,-0.65960255737304688,-0.01556231079101563,-9.75158336181640640
775,-3.04580163955688480,19.69465637207031200,19.12213706970214800,-0.48722003784179688,0.01197100830078125,-9.75756886596679680
776,-2.80916023254394520,19.58778572082519600,19.25954246520996000,-0.30645781250000000,0.01316810913085938,-9.77552537841796960
777,-2.51145029067993160,19.94656562805175600,19.32824516296386800,-0.13407529296874998,0.02154781494140625,-9.77073697509765600
778,-2.04580163955688480,17.99236679077148400,19.02290153503418000,0.09337386474609374,0.01675941162109375,-9.81143840332031200
779,-1.80916035175323480,12.46564865112304600,19.58778572082519600,0.25019407348632812,0.00478840332031250,-9.82580361328124960
780,-1.74809157848358160,7.25190830230712960,18.98473358154296800,0.34596213989257812,0.00837970581054687,-9.82101520996093600
781,-1.79389309883117680,2.25954198837280280,19.20610618591308400,0.40462008056640624,-0.01915361328125000,-9.81622680664062560
782,-2.05343508720397960,-0.78625953197479248,19.14503860473632800,0.36990415649414064,-0.01795651245117188,-9.78510218505859200
783,-2.07633590698242200,-1.52671754360198980,19.19083976745605600,0.35913024902343748,-0.03830722656250000,-9.78151088256835840
784,-2.05343508720397960,-1.78625953197479240,19.68702316284179600,0.35075054321289060,-0.03950432739257812,-9.77552537841796960
785,-2.07633590698242200,-2.38931298255920400,18.88549613952636800,0.32082302246093748,-0.03830722656250000,-9.77672247924804640
786,-2.02290081977844240,-1.81679391860961920,19.61068725585937600,0.31483751831054684,-0.07062894897460938,-9.77672247924804640
787,-2.31297707557678240,-2.18320608139038080,19.02290153503418000,0.28730419921875000,-0.05626373901367188,-9.77552537841796960
788,-2.60305333137512200,-2.48091602325439440,19.57251930236816400,0.27892449340820312,-0.07900865478515624,-9.78031378173828160
789,-2.80916023254394520,-2.87786269187927240,19.56488609313964800,0.26336218261718748,-0.07661445312500000,-9.78510218505859200
790,-2.80916023254394520,-3.16030526161193840,18.70228958129882800,0.23463176269531248,-0.07541735229492188,-9.78629928588867040
791,-2.60305333137512200,-3.03053426742553720,19.54198455810546800,0.22146365356445312,-0.08858546142578126,-9.78270798339843680
792,-2.33587789535522480,-2.73282432556152360,19.08396911621093600,0.19512743530273436,-0.07541735229492188,-9.77552537841796960
793,-2.09923672676086440,-2.45801520347595200,19.62595367431640800,0.17956512451171874,-0.09217676391601562,-9.78031378173828160
794,-2.00000000000000000,-2.17557263374328600,19.33587837219238400,0.15921441040039062,-0.08379705810546874,-9.77911668090820320
795,-2.08396935462951680,-2.08396935462951680,18.82442665100097600,0.14245499877929688,-0.08619125976562500,-9.77672247924804640
796,-2.34351134300231920,-2.32824420928955080,19.65648841857910000,0.12689268798828124,-0.10055646972656250,-9.78270798339843680
797,-2.64122128486633320,-2.59541988372802720,19.33587837219238400,0.09935936889648436,-0.09816226806640624,-9.77432827758788960
798,-2.90839695930480960,-2.98473286628723160,19.58015251159668000,0.09696516723632812,-0.09935936889648436,-9.78869348754882880
799,-3.00763368606567400,-3.08396959304809560,19.21374130249023600,0.07541735229492188,-0.08858546142578126,-9.78390508422851520
800,-2.96183204650878920,-3.01526713371276840,19.02290153503418000,0.04548983154296876,-0.09217676391601562,-9.78031378173828160
801,-2.76335883140563960,-2.67175579071044920,19.52671813964843600,0.02753331909179688,-0.09457096557617186,-9.77911668090820320
802,-2.57251906394958480,-2.29007625579834000,19.21374130249023600,0.00837970581054687,-0.08379705810546874,-9.77911668090820320
803,-2.43511462211608880,-2.01526713371276840,19.52671813964843600,-0.00837970581054687,-0.08619125976562500,-9.77432827758788960
804,-2.48091602325439440,-1.93893134593963640,19.00763320922851600,-0.02633621826171875,-0.07062894897460938,-9.78629928588867040
805,-2.60305333137512200,-2.19083976745605480,19.32061004638672000,-0.04070142822265625,-0.08020575561523438,-9.78031378173828160
806,-1.96946561336517320,-0.93893128633499152,19.40458106994628800,-0.09217676391601562,-0.04429273071289063,-9.75996306762695200
807,-1.93129765987396240,-0.87786257266998288,19.03053474426269600,-0.05985504150390626,-0.06823474731445312,-9.77911668090820320
808,-1.83969461917877200,-0.72519081830978400,19.65648841857910000,-0.06224924316406250,-0.08020575561523438,-9.78270798339843680
809,-1.80152666568756120,-0.60305345058441160,18.85496139526367200,-0.06943184814453126,-0.06584054565429688,-9.77432827758788960
810,-1.93893134593963640,-0.76335877180099488,19.43511390686035200,-0.06584054565429688,-0.09816226806640624,-9.78629928588867040
811,-1.86259543895721440,-0.68702292442321776,19.26717567443847600,-0.06943184814453126,-0.06344634399414062,-9.77552537841796960
812,-1.85496187210083000,-0.69465649127960208,19.24427413940429600,-0.06344634399414062,-0.08738836059570312,-9.78629928588867040
813,-1.84732830524444600,-0.65648853778839112,19.41221427917480400,-0.07302315063476562,-0.08499415893554688,-9.77791958007812480
814,-1.88549613952636720,-0.68702292442321776,18.91603088378906400,-0.08020575561523438,-0.08259995727539062,-9.77432827758788960
815,-1.87786257266998280,-0.68702292442321776,19.44274902343750000,-0.07541735229492188,-0.09696516723632812,-9.78510218505859200
816,-1.87786257266998280,-0.66412216424942016,19.15267181396484400,-0.08020575561523438,-0.08499415893554688,-9.77911668090820320
817,-1.85496187210083000,-0.69465649127960208,19.51908493041992000,-0.08259995727539062,-0.10175357055664062,-9.77911668090820320
818,-1.84732830524444600,-0.67175573110580448,19.38167953491210800,-0.08259995727539062,-0.09097966308593750,-9.77552537841796960
819,-1.87786257266998280,-0.70992368459701536,19.01526641845703200,-0.08499415893554688,-0.10295067138671874,-9.77552537841796960
820,-1.83206105232238760,-0.70229005813598632,19.40458106994628800,-0.08619125976562500,-0.10295067138671874,-9.77911668090820320
821,-1.85496187210083000,-0.69465649127960208,19.15267181396484400,-0.08738836059570312,-0.10175357055664062,-9.77911668090820320
822,-1.85496187210083000,-0.70229005813598632,19.51908493041992000,-0.09217676391601562,-0.11252747802734374,-9.77911668090820320
823,-1.84732830524444600,-0.67175573110580448,19.19847297668457200,-0.09217676391601562,-0.10534487304687500,-9.78031378173828160
824,-1.87022900581359880,-0.67175573110580448,19.12977027893066400,-0.09816226806640624,-0.11971008300781250,-9.78151088256835840
825,-1.83969461917877200,-0.67175573110580448,19.41984748840332000,-0.09576806640625000,-0.11492167968750000,-9.78270798339843680
826,-1.86259543895721440,-0.69465649127960208,19.21374130249023600,-0.10295067138671874,-0.11133037719726562,-9.77911668090820320
827,-1.86259543895721440,-0.66412216424942016,19.52671813964843600,-0.10773907470703124,-0.11851298217773438,-9.77911668090820320
828,-1.87022900581359880,-0.72519081830978400,19.08396911621093600,-0.09816226806640624,-0.11851298217773438,-9.78031378173828160
829,-1.85496187210083000,-0.70229005813598632,19.29007720947265600,-0.10654197387695312,-0.13168109130859374,-9.77313117675781120
830,-1.84732830524444600,-0.68702292442321776,19.24427413940429600,-0.11133037719726562,-0.12090718383789062,-9.78151088256835840
831,-1.87786257266998280,-0.68702292442321776,19.35114479064941600,-0.11851298217773438,-0.12569558715820312,-9.77791958007812480
832,-1.85496187210083000,-0.68702292442321776,19.60305404663086000,-0.12090718383789062,-0.13048399047851562,-9.78270798339843680
833,-1.87022900581359880,-0.68702292442321776,18.87022972106933600,-0.11731588134765624,-0.12090718383789062,-9.78270798339843680
834,-1.85496187210083000,-0.64122140407562256,19.43511390686035200,-0.12090718383789062,-0.14125789794921876,-9.77672247924804640
835,-1.88549613952636720,-0.68702292442321776,19.13740539550781200,-0.12330138549804686,-0.12569558715820312,-9.77552537841796960
836,-1.81679391860961920,-0.65648853778839112,19.37404632568359200,-0.12330138549804686,-0.13766659545898436,-9.78151088256835840
837,-1.90839695930480960,-0.74045801162719728,19.38167953491210800,-0.12569558715820312,-0.13407529296874998,-9.78031378173828160
838,-1.87786257266998280,-0.69465649127960208,18.96946525573730400,-0.12808978881835936,-0.13048399047851562,-9.77432827758788960
839,-1.85496187210083000,-0.69465649127960208,19.54961776733398400,-0.13527239379882810,-0.14484920043945312,-9.78151088256835840
840,-1.83969461917877200,-0.67175573110580448,19.09923744201660000,-0.12928688964843748,-0.14365209960937500,-9.77432827758788960
841,-1.84732830524444600,-0.68702292442321776,19.58015251159668000,-0.13527239379882810,-0.14963760375976562,-9.78390508422851520
842,-1.83206105232238760,-0.69465649127960208,19.19847297668457200,-0.14365209960937500,-0.14006079711914062,-9.78031378173828160
843,-1.85496187210083000,-0.66412216424942016,18.93893051147460800,-0.14484920043945312,-0.15203180541992186,-9.78151088256835840
844,-1.85496187210083000,-0.73282444477081296,19.42748069763183600,-0.14963760375976562,-0.15322890625000000,-9.77672247924804640
845,-1.81679391860961920,-0.68702292442321776,19.16030502319336000,-0.14724340209960938,-0.14963760375976562,-9.77432827758788960
846,-1.84732830524444600,-0.70992368459701536,19.55725288391113200,-0.15442600708007812,-0.15562310791015624,-9.77672247924804640
847,-1.83969461917877200,-0.68702292442321776,19.26717567443847600,-0.15322890625000000,-0.14484920043945312,-9.78031378173828160
848,-1.86259543895721440,-0.67938929796218872,19.05343437194824400,-0.16041151123046874,-0.15322890625000000,-9.77791958007812480
849,-1.85496187210083000,-0.68702292442321776,19.43511390686035200,-0.16400281372070310,-0.15442600708007812,-9.77672247924804640
850,-1.87786257266998280,-0.69465649127960208,19.25954246520996000,-0.16639701538085936,-0.15921441040039062,-9.77552537841796960
851,-1.86259543895721440,-0.70229005813598632,19.57251930236816400,-0.16998831787109376,-0.16519991455078122,-9.78031378173828160
852,-1.84732830524444600,-0.65648853778839112,19.11450386047363200,-0.17357962036132812,-0.15203180541992186,-9.77791958007812480
853,-1.87786257266998280,-0.70992368459701536,19.22137451171875200,-0.18076222534179688,-0.16519991455078122,-9.77432827758788960
854,-1.85496187210083000,-0.63358777761459352,19.38167953491210800,-0.17836802368164062,-0.15442600708007812,-9.77552537841796960
855,-1.84732830524444600,-0.67938929796218872,19.19847297668457200,-0.18315642700195312,-0.15801730957031248,-9.77552537841796960
856,-1.84732830524444600,-0.70229005813598632,19.62595367431640800,-0.18794483032226560,-0.16519991455078122,-9.78031378173828160
857,-1.88549613952636720,-0.70992368459701536,18.83206176757812400,-0.19033903198242184,-0.15562310791015624,-9.77552537841796960
858,-1.84732830524444600,-0.67938929796218872,19.48855018615722800,-0.19273323364257812,-0.17238251953125000,-9.77672247924804640
859,-1.84732830524444600,-0.68702292442321776,19.21374130249023600,-0.19273323364257812,-0.15921441040039062,-9.77432827758788960
860,-1.85496187210083000,-0.69465649127960208,19.16030502319336000,-0.19273323364257812,-0.16400281372070310,-9.77911668090820320
861,-1.82442748546600360,-0.70229005813598632,19.46564865112304800,-0.20470424194335936,-0.16519991455078122,-9.77911668090820320
862,-1.81679391860961920,-0.69465649127960208,18.82442665100097600,-0.20949264526367188,-0.15921441040039062,-9.77672247924804640
863,-1.77862596511840820,-0.68702292442321776,19.62595367431640800,-0.20590134277343748,-0.16879121704101562,-9.77552537841796960
864,-1.89312982559204120,-0.70229005813598632,19.06106948852539200,-0.21068974609375000,-0.16519991455078122,-9.78151088256835840
865,-1.91603052616119400,-0.68702292442321776,19.27480888366699200,-0.20709844360351560,-0.16879121704101562,-9.77911668090820320
866,-1.86259543895721440,-0.69465649127960208,19.44274902343750000,-0.21787235107421872,-0.15921441040039062,-9.77552537841796960
867,-1.83969461917877200,-0.70229005813598632,19.12213706970214800,-0.22026655273437500,-0.16998831787109376,-9.77672247924804640
868,-1.80916035175323480,-0.68702292442321776,19.40458106994628800,-0.22266075439453124,-0.15921441040039062,-9.77432827758788960
869,-1.87786257266998280,-0.70229005813598632,19.18320655822754000,-0.23343466186523436,-0.16519991455078122,-9.77672247924804640
870,-1.83969461917877200,-0.69465649127960208,19.48091697692871200,-0.22505495605468748,-0.16879121704101562,-9.77791958007812480
871,-1.80916035175323480,-0.71755725145339968,19.34351158142090000,-0.23702596435546876,-0.16160861206054686,-9.77432827758788960
872,-1.83206105232238760,-0.66412216424942016,19.14503860473632800,-0.23463176269531248,-0.16639701538085936,-9.77552537841796960
873,-1.80152666568756120,-0.70992368459701536,19.34351158142090000,-0.23702596435546876,-0.16041151123046874,-9.77432827758788960
874,-1.87022900581359880,-0.70992368459701536,19.10687065124511600,-0.24181436767578124,-0.16519991455078122,-9.76834277343749920
875,-1.83206105232238760,-0.66412216424942016,19.59542083740234400,-0.24899697265625000,-0.17118541870117188,-9.77313117675781120
876,-1.85496187210083000,-0.68702292442321776,19.22900772094726400,-0.24540567016601560,-0.15442600708007812,-9.77313117675781120
877,-1.87786257266998280,-0.67938929796218872,19.05343437194824400,-0.25737667846679684,-0.16280571289062498,-9.77791958007812480
878,-1.83206105232238760,-0.68702292442321776,19.33587837219238400,-0.25857377929687496,-0.15921441040039062,-9.77432827758788960
879,-1.84732830524444600,-0.67175573110580448,19.10687065124511600,-0.25498247680664060,-0.16280571289062498,-9.77313117675781120
880,-1.83969461917877200,-0.68702292442321776,19.58015251159668000,-0.25857377929687496,-0.15921441040039062,-9.77432827758788960
881,-1.87022900581359880,-0.70229005813598632,19.08396911621093600,-0.26575638427734372,-0.15083470458984374,-9.77552537841796960
882,-1.84732830524444600,-0.67938929796218872,19.35114479064941600,-0.26934768676757808,-0.16280571289062498,-9.76834277343749920
883,-1.86259543895721440,-0.70229005813598632,19.26717567443847600,-0.27054478759765620,-0.15083470458984374,-9.77552537841796960
884,-1.86259543895721440,-0.69465649127960208,19.38167953491210800,-0.27054478759765620,-0.15921441040039062,-9.77552537841796960
885,-1.84732830524444600,-0.70992368459701536,19.35877799987792800,-0.26934768676757808,-0.15083470458984374,-9.77791958007812480
886,-1.85496187210083000,-0.68702292442321776,18.89312934875488400,-0.28371289672851564,-0.15442600708007812,-9.78031378173828160
887,-1.85496187210083000,-0.70992368459701536,19.46564865112304800,-0.28371289672851564,-0.16041151123046874,-9.76953987426757760
888,-1.84732830524444600,-0.69465649127960208,19.12213706970214800,-0.28850130004882812,-0.15442600708007812,-9.78151088256835840
889,-1.84732830524444600,-0.67938929796218872,19.54198455810546800,-0.28850130004882812,-0.14844050292968750,-9.77313117675781120
890,-1.80152666568756120,-0.68702292442321776,19.29771041870117200,-0.29448680419921876,-0.14484920043945312,-9.77313117675781120
891,-1.86259543895721440,-0.71755725145339968,18.76335906982422000,-0.29448680419921876,-0.14724340209960938,-9.77193407592773280
892,-1.90839695930480960,-0.72519081830978400,19.41221427917480400,-0.29807810668945312,-0.16160861206054686,-9.77791958007812480
893,-1.83206105232238760,-0.66412216424942016,19.33587837219238400,-0.30645781250000000,-0.14724340209960938,-9.77432827758788960
894,-1.87786257266998280,-0.69465649127960208,19.30534362792968800,-0.31004911499023436,-0.14484920043945312,-9.77193407592773280
895,-1.83206105232238760,-0.68702292442321776,19.19083976745605600,-0.31124621582031248,-0.14006079711914062,-9.77672247924804640
896,-1.87022900581359880,-0.67938929796218872,19.00763320922851600,-0.30885201416015624,-0.14365209960937500,-9.77672247924804640
897,-1.81679391860961920,-0.70229005813598632,19.47328186035156400,-0.31483751831054684,-0.14604630126953124,-9.76834277343749920
898,-1.87022900581359880,-0.70992368459701536,19.18320655822754000,-0.31364041748046872,-0.14125789794921876,-9.77672247924804640
899,-1.84732830524444600,-0.68702292442321776,19.58015251159668000,-0.32202012329101560,-0.14484920043945312,-9.76953987426757760
900,-1.83206105232238760,-0.67938929796218872,19.09923744201660000,-0.32082302246093748,-0.12449848632812500,-9.76953987426757760
901,-1.88549613952636720,-0.70992368459701536,19.38167953491210800,-0.33399113159179684,-0.15083470458984374,-9.78031378173828160
902,-1.83206105232238760,-0.67938929796218872,19.46564865112304800,-0.32082302246093748,-0.11971008300781250,-9.76953987426757760
903,-1.90076339244842520,-0.63358777761459352,18.93893051147460800,-0.33518823242187496,-0.13527239379882810,-9.78151088256835840
904,-1.85496187210083000,-0.68702292442321776,19.68702316284179600,-0.33159692993164060,-0.13048399047851562,-9.77073697509765600
905,-1.87022900581359880,-0.67938929796218872,18.90839767456054800,-0.33279403076171872,-0.11492167968750000,-9.77432827758788960
906,-1.85496187210083000,-0.67938929796218872,19.59542083740234400,-0.33159692993164060,-0.13886369628906250,-9.77313117675781120
907,-1.87786257266998280,-0.64885497093200680,19.20610618591308400,-0.33877953491210940,-0.11252747802734374,-9.77552537841796960
908,-1.90076339244842520,-0.70992368459701536,19.20610618591308400,-0.34476503906250000,-0.12689268798828124,-9.77552537841796960
909,-1.86259543895721440,-0.68702292442321776,19.55725288391113200,-0.34237083740234376,-0.11611878051757812,-9.77193407592773280
910,-1.87786257266998280,-0.67175573110580448,18.95419883728027200,-0.34835634155273436,-0.11492167968750000,-9.77552537841796960
911,-1.85496187210083000,-0.70229005813598632,19.63358879089355600,-0.34596213989257812,-0.11731588134765624,-9.77073697509765600
912,-1.85496187210083000,-0.67938929796218872,19.11450386047363200,-0.35075054321289060,-0.10534487304687500,-9.77791958007812480
913,-1.84732830524444600,-0.68702292442321776,19.38167953491210800,-0.35075054321289060,-0.11611878051757812,-9.77552537841796960
914,-1.83206105232238760,-0.69465649127960208,19.38931274414062400,-0.35913024902343748,-0.10654197387695312,-9.77073697509765600
915,-1.85496187210083000,-0.70992368459701536,18.90839767456054800,-0.35553894653320312,-0.10295067138671874,-9.77432827758788960
916,-1.83206105232238760,-0.64885497093200680,19.48091697692871200,-0.36391865234375000,-0.10295067138671874,-9.77313117675781120
917,-1.83206105232238760,-0.67175573110580448,19.24427413940429600,-0.35913024902343748,-0.10055646972656250,-9.77672247924804640
918,-1.80916035175323480,-0.68702292442321776,19.51144981384277200,-0.36152445068359376,-0.10175357055664062,-9.77552537841796960
919,-1.88549613952636720,-0.70229005813598632,19.32824516296386800,-0.36272155151367184,-0.08858546142578126,-9.77552537841796960
920,-1.87022900581359880,-0.67175573110580448,19.02290153503418000,-0.36631285400390624,-0.09576806640625000,-9.77073697509765600
921,-1.85496187210083000,-0.68702292442321776,19.46564865112304800,-0.36511575317382808,-0.09217676391601562,-9.76953987426757760
922,-1.88549613952636720,-0.68702292442321776,19.05343437194824400,-0.37229835815429688,-0.08259995727539062,-9.77791958007812480
923,-1.83206105232238760,-0.67938929796218872,19.58015251159668000,-0.36870705566406248,-0.09097966308593750,-9.77432827758788960
924,-1.85496187210083000,-0.67938929796218872,19.29771041870117200,-0.37469255981445312,-0.07182604980468750,-9.77791958007812480
925,-1.83969461917877200,-0.70229005813598632,19.08396911621093600,-0.37349545898437496,-0.07900865478515624,-9.77073697509765600
926,-1.87786257266998280,-0.67175573110580448,19.41984748840332000,-0.37708676147460936,-0.08140285644531250,-9.77313117675781120
927,-1.88549613952636720,-0.67938929796218872,19.10687065124511600,-0.38187516479492184,-0.07182604980468750,-9.76834277343749920
928,-1.84732830524444600,-0.70992368459701536,19.70228958129882800,-0.37948096313476560,-0.07422025146484376,-9.76953987426757760
